"Time (s)","Acceleration x (m/s^2)","Acceleration y (m/s^2)","Acceleration z (m/s^2)","Absolute acceleration (m/s^2)"
0.000000000E0,-1.962127686E-1,7.896423340E-2,8.678771973E0,8.681348844E0
2.258301000E-3,-1.818542480E-1,7.656860352E-2,9.207580566E0,9.209694545E0
4.577637000E-3,-1.770629883E-1,7.656860352E-2,9.449264526E0,9.451233472E0
6.927490000E-3,-1.746826172E-1,6.460571289E-2,9.547363281E0,9.549179731E0
9.246826000E-3,-1.722869873E-1,6.460571289E-2,9.588043213E0,9.589808619E0
1.159668000E-2,-1.866455078E-1,5.981445312E-2,9.623931885E0,9.625927448E0
1.391601600E-2,-1.866455078E-1,6.221008301E-2,9.623931885E0,9.625942632E0
1.626586900E-2,-1.651000977E-1,7.896423340E-2,9.645462036E0,9.647198105E0
1.858520500E-2,-1.651000977E-1,7.896423340E-2,9.645462036E0,9.647198105E0
2.093505800E-2,-1.818542480E-1,6.460571289E-2,9.645462036E0,9.647392537E0
2.325439400E-2,-1.794586182E-1,6.700134277E-2,9.655044556E0,9.656944649E0
2.560424800E-2,-1.866455078E-1,6.221008301E-2,9.640686035E0,9.642693289E0
2.795410100E-2,-1.842498779E-1,7.177734375E-2,9.643081665E0,9.645108812E0
3.030395500E-2,-1.866455078E-1,6.939697266E-2,9.655044556E0,9.657097797E0
3.262329100E-2,-1.746826172E-1,5.981445312E-2,9.662216187E0,9.663980206E0
3.497314400E-2,-1.842498779E-1,6.460571289E-2,9.640686035E0,9.642662970E0
3.732299800E-2,-1.818542480E-1,7.177734375E-2,9.638290405E0,9.640273071E0
3.964233400E-2,-1.938171387E-1,7.896423340E-2,9.628723145E0,9.630997343E0
4.199218700E-2,-1.914215088E-1,6.939697266E-2,9.616760254E0,9.618915527E0
4.431152300E-2,-1.866455078E-1,5.981445312E-2,9.614364624E0,9.616362173E0
4.666137700E-2,-1.818542480E-1,7.417297363E-2,9.628723145E0,9.630725933E0
4.898071300E-2,-1.818542480E-1,6.700134277E-2,9.647857666E0,9.649804023E0
5.133056600E-2,-1.794586182E-1,6.939697266E-2,9.647857666E0,9.649776105E0
5.364990200E-2,-1.890258789E-1,5.743408203E-2,9.652648926E0,9.654670411E0
5.599975600E-2,-1.842498779E-1,6.460571289E-2,9.643081665E0,9.645058108E0
5.831909200E-2,-1.962127686E-1,6.460571289E-2,9.623931885E0,9.626148673E0
6.066894500E-2,-1.866455078E-1,6.460571289E-2,9.619140625E0,9.621168162E0
6.298828100E-2,-1.794586182E-1,7.417297363E-2,9.631118774E0,9.633076138E0
6.533813500E-2,-1.722869873E-1,6.700134277E-2,9.645462036E0,9.647233276E0
6.765747100E-2,-1.818542480E-1,6.221008301E-2,9.643081665E0,9.644996893E0
7.000732400E-2,-1.914215088E-1,6.221008301E-2,9.633499146E0,9.635601594E0
7.232666000E-2,-1.914215088E-1,6.460571289E-2,9.619140625E0,9.621261999E0
7.467651400E-2,-1.962127686E-1,7.177734375E-2,9.626327515E0,9.628594542E0
7.702636700E-2,-1.794586182E-1,7.656860352E-2,9.631118774E0,9.633094881E0
7.934570300E-2,-1.746826172E-1,6.460571289E-2,9.638290405E0,9.640089722E0
8.169555700E-2,-1.866455078E-1,6.460571289E-2,9.635894775E0,9.637918788E0
8.401489200E-2,-1.842498779E-1,6.939697266E-2,9.626327515E0,9.628340738E0
8.636474600E-2,-1.914215088E-1,6.460571289E-2,9.633499146E0,9.635617358E0
8.868408200E-2,-1.938171387E-1,5.503845215E-2,9.645462036E0,9.647566129E0
9.103393500E-2,-1.962127686E-1,5.743408203E-2,9.631118774E0,9.633288482E0
9.335327100E-2,-1.698913574E-1,7.656860352E-2,9.635894775E0,9.637696506E0
9.570312500E-2,-1.674957275E-1,6.700134277E-2,9.645462036E0,9.647148900E0
9.802246100E-2,-1.770629883E-1,6.460571289E-2,9.655044556E0,9.656884103E0
1.003723140E-1,-1.746826172E-1,7.177734375E-2,9.633499146E0,9.635350112E0
1.026916500E-1,-1.770629883E-1,6.460571289E-2,9.650253296E0,9.652093756E0
1.050415040E-1,-1.818542480E-1,6.460571289E-2,9.647857666E0,9.649787687E0
1.073608400E-1,-1.770629883E-1,7.656860352E-2,9.628723145E0,9.630655401E0
1.097106930E-1,-1.794586182E-1,6.939697266E-2,9.647857666E0,9.649776105E0
1.120300290E-1,-1.818542480E-1,6.700134277E-2,9.631118774E0,9.633068514E0
1.143798830E-1,-1.842498779E-1,6.939697266E-2,9.645462036E0,9.647471267E0
1.166992190E-1,-1.794586182E-1,6.221008301E-2,9.638290405E0,9.640161691E0
1.190490720E-1,-1.818542480E-1,7.177734375E-2,9.635894775E0,9.637877934E0
1.213684080E-1,-1.938171387E-1,6.460571289E-2,9.628723145E0,9.630890321E0
1.237182620E-1,-1.818542480E-1,7.417297363E-2,9.623931885E0,9.625935670E0
1.260681150E-1,-1.842498779E-1,7.417297363E-2,9.655044556E0,9.657087295E0
1.283874510E-1,-1.938171387E-1,5.743408203E-2,9.645462036E0,9.647580093E0
1.307373050E-1,-1.962127686E-1,6.460571289E-2,9.647857666E0,9.650068958E0
1.330566410E-1,-1.866455078E-1,6.700134277E-2,9.633499146E0,9.635540022E0
1.354064940E-1,-1.818542480E-1,6.700134277E-2,9.640686035E0,9.642633840E0
1.377258300E-1,-1.818542480E-1,6.221008301E-2,9.638290405E0,9.640206585E0
1.400756830E-1,-1.866455078E-1,6.700134277E-2,9.611968994E0,9.614014441E0
1.423950190E-1,-1.914215088E-1,5.981445312E-2,9.645462036E0,9.647546727E0
1.447448730E-1,-1.842498779E-1,5.503845215E-2,9.645462036E0,9.647378667E0
1.470642090E-1,-1.698913574E-1,5.981445312E-2,9.657424927E0,9.659104361E0
1.494140620E-1,-1.603240967E-1,5.503845215E-2,9.633499146E0,9.634990339E0
1.517333980E-1,-1.722869873E-1,6.221008301E-2,9.635894775E0,9.637635655E0
1.540832520E-1,-1.842498779E-1,6.460571289E-2,9.645462036E0,9.647437992E0
1.564025880E-1,-1.794586182E-1,5.981445312E-2,9.650253296E0,9.652107119E0
1.587524410E-1,-1.818542480E-1,6.700134277E-2,9.631118774E0,9.633068514E0
1.611022950E-1,-1.818542480E-1,7.656860352E-2,9.640686035E0,9.642705064E0
1.634216310E-1,-1.842498779E-1,7.177734375E-2,9.643081665E0,9.645108812E0
1.657714840E-1,-1.962127686E-1,6.939697266E-2,9.643081665E0,9.645327334E0
1.680908200E-1,-1.842498779E-1,6.700134277E-2,9.628723145E0,9.630718903E0
1.704406740E-1,-1.866455078E-1,7.177734375E-2,9.633499146E0,9.635574416E0
1.727600100E-1,-1.722869873E-1,7.896423340E-2,9.650253296E0,9.652114112E0
1.751098630E-1,-1.746826172E-1,7.177734375E-2,9.643081665E0,9.644930793E0
1.774291990E-1,-1.842498779E-1,5.981445312E-2,9.640686035E0,9.642632058E0
1.797790530E-1,-1.938171387E-1,5.981445312E-2,9.638290405E0,9.640424513E0
1.820983890E-1,-1.962127686E-1,5.981445312E-2,9.635894775E0,9.638077886E0
1.844482420E-1,-1.938171387E-1,6.939697266E-2,9.623931885E0,9.626133489E0
1.867675780E-1,-1.866455078E-1,7.896423340E-2,9.631118774E0,9.633250788E0
1.891174320E-1,-1.770629883E-1,6.700134277E-2,9.638290405E0,9.640149502E0
1.914367670E-1,-1.914215088E-1,6.939697266E-2,9.635894775E0,9.638045770E0
1.937866210E-1,-1.842498779E-1,6.939697266E-2,9.643081665E0,9.645091392E0
1.961059570E-1,-1.866455078E-1,5.264282227E-2,9.645462036E0,9.647411347E0
1.984558100E-1,-1.890258789E-1,5.503845215E-2,9.628723145E0,9.630735663E0
2.007751460E-1,-1.770629883E-1,5.264282227E-2,9.633499146E0,9.635270020E0
2.031250000E-1,-1.866455078E-1,5.264282227E-2,9.628723145E0,9.630675844E0
2.054748530E-1,-1.962127686E-1,6.460571289E-2,9.616760254E0,9.618978695E0
2.077941890E-1,-1.818542480E-1,7.417297363E-2,9.635894775E0,9.637896073E0
2.101440430E-1,-1.866455078E-1,6.221008301E-2,9.640686035E0,9.642693289E0
2.124633790E-1,-1.914215088E-1,6.700134277E-2,9.628723145E0,9.630858776E0
2.148132320E-1,-1.890258789E-1,6.460571289E-2,9.623931885E0,9.626004862E0
2.171325680E-1,-1.938171387E-1,5.503845215E-2,9.638290405E0,9.640396063E0
2.194824220E-1,-2.033843994E-1,5.743408203E-2,9.614364624E0,9.616687112E0
2.218017580E-1,-2.010040283E-1,5.264282227E-2,9.602401733E0,9.604649548E0
2.241516110E-1,-1.914215088E-1,5.024719238E-2,9.628723145E0,9.630756791E0
2.264709470E-1,-1.938171387E-1,5.264282227E-2,9.602401733E0,9.604501830E0
2.288208010E-1,-1.962127686E-1,5.981445312E-2,9.621536255E0,9.623722623E0
2.311401370E-1,-1.938171387E-1,7.177734375E-2,9.628723145E0,9.630941100E0
2.334899900E-1,-1.938171387E-1,7.177734375E-2,9.611968994E0,9.614190814E0
2.358093260E-1,-1.914215088E-1,5.981445312E-2,9.621536255E0,9.623626129E0
2.381591800E-1,-1.866455078E-1,6.221008301E-2,9.619140625E0,9.621152374E0
2.404785160E-1,-1.770629883E-1,5.264282227E-2,9.643081665E0,9.644850780E0
2.428283690E-1,-1.722869873E-1,6.221008301E-2,9.635894775E0,9.637635655E0
2.451782230E-1,-1.770629883E-1,5.981445312E-2,9.621536255E0,9.623351234E0
2.474975580E-1,-1.818542480E-1,5.981445312E-2,9.628723145E0,9.630626051E0
2.498474120E-1,-1.818542480E-1,5.981445312E-2,9.631118774E0,9.633021207E0
2.521667480E-1,-1.962127686E-1,5.024719238E-2,9.623931885E0,9.626063014E0
2.545166010E-1,-1.962127686E-1,5.503845215E-2,9.614364624E0,9.616524102E0
2.568359370E-1,-1.818542480E-1,6.460571289E-2,9.628723145E0,9.630657000E0
2.591857910E-1,-1.914215088E-1,6.221008301E-2,9.626327515E0,9.628431529E0
2.615051270E-1,-1.962127686E-1,6.221008301E-2,9.616760254E0,9.618962903E0
2.638549800E-1,-1.866455078E-1,5.981445312E-2,9.619140625E0,9.621137182E0
2.661743160E-1,-1.770629883E-1,5.264282227E-2,9.643081665E0,9.644850780E0
2.685241700E-1,-1.986083984E-1,5.024719238E-2,9.635894775E0,9.638072328E0
2.708435060E-1,-1.818542480E-1,4.785156250E-2,9.638290405E0,9.640124619E0
2.731933590E-1,-1.962127686E-1,5.743408203E-2,9.633499146E0,9.635668317E0
2.755126950E-1,-1.938171387E-1,5.264282227E-2,9.628723145E0,9.630817501E0
2.778625490E-1,-2.033843994E-1,5.024719238E-2,9.614364624E0,9.616646875E0
2.801818850E-1,-1.962127686E-1,5.981445312E-2,9.609573364E0,9.611762453E0
2.825317380E-1,-1.938171387E-1,5.264282227E-2,9.592819214E0,9.594921408E0
2.848510740E-1,-2.081756592E-1,5.264282227E-2,9.583251953E0,9.585657326E0
2.872009280E-1,-1.962127686E-1,5.503845215E-2,9.611968994E0,9.614129010E0
2.895202640E-1,-1.962127686E-1,5.503845215E-2,9.604797363E0,9.606958992E0
2.918701170E-1,-1.866455078E-1,6.939697266E-2,9.616760254E0,9.618821667E0
2.942199710E-1,-1.914215088E-1,7.417297363E-2,9.623931885E0,9.626121168E0
2.965393070E-1,-1.627044678E-1,8.375549316E-2,9.626327515E0,9.628066740E0
2.988891600E-1,-1.555328369E-1,7.896423340E-2,9.614364624E0,9.615946804E0
3.012084960E-1,-1.579284668E-1,8.853149414E-2,9.626327515E0,9.628029946E0
3.035583500E-1,-1.435699463E-1,9.092712402E-2,9.626327515E0,9.627827454E0
3.058776850E-1,-1.363983154E-1,9.571838379E-2,9.607177734E0,9.608622718E0
3.082275390E-1,-1.579284668E-1,1.100769043E-1,9.635894775E0,9.637817515E0
3.105468750E-1,-1.483612061E-1,1.004943848E-1,9.628723145E0,9.630390416E0
3.129272460E-1,-1.579284668E-1,1.028900146E-1,9.628723145E0,9.630567852E0
3.152465820E-1,-1.531372070E-1,9.092712402E-2,9.611968994E0,9.613618813E0
3.175964350E-1,-1.770629883E-1,7.656860352E-2,9.635894775E0,9.637825594E0
3.199157710E-1,-1.866455078E-1,7.417297363E-2,9.633499146E0,9.635592559E0
3.222656250E-1,-1.770629883E-1,8.135986328E-2,9.650253296E0,9.652220439E0
3.245849610E-1,-1.698913574E-1,9.092712402E-2,9.628723145E0,9.630651079E0
3.269348140E-1,-1.603240967E-1,9.571838379E-2,9.645462036E0,9.647269236E0
3.292541500E-1,-1.507415771E-1,9.571838379E-2,9.650253296E0,9.651905185E0
3.316040040E-1,-1.651000977E-1,8.613586426E-2,9.645462036E0,9.647259472E0
3.339233400E-1,-1.651000977E-1,7.417297363E-2,9.643081665E0,9.644780126E0
3.362731930E-1,-1.651000977E-1,9.332275391E-2,9.643081665E0,9.644946406E0
3.385925290E-1,-1.555328369E-1,8.613586426E-2,9.645462036E0,9.647100484E0
3.409423830E-1,-1.627044678E-1,9.809875488E-2,9.633499146E0,9.635372432E0
3.432617190E-1,-1.507415771E-1,1.004943848E-1,9.626327515E0,9.628032175E0
3.456115720E-1,-1.507415771E-1,8.613586426E-2,9.626327515E0,9.627893011E0
3.479309080E-1,-1.674957275E-1,9.332275391E-2,9.628723145E0,9.630632033E0
3.502807620E-1,-1.651000977E-1,8.853149414E-2,9.628723145E0,9.630545429E0
3.526000980E-1,-1.698913574E-1,8.375549316E-2,9.645462036E0,9.647321698E0
3.549499510E-1,-1.698913574E-1,7.656860352E-2,9.645462036E0,9.647261980E0
3.572692870E-1,-1.818542480E-1,7.177734375E-2,9.631118774E0,9.633102917E0
3.596191410E-1,-1.866455078E-1,6.700134277E-2,9.655044556E0,9.657080879E0
3.619384760E-1,-1.914215088E-1,6.700134277E-2,9.621536255E0,9.623673481E0
3.642883300E-1,-1.722869873E-1,7.656860352E-2,9.633499146E0,9.635343862E0
3.666076660E-1,-1.746826172E-1,5.743408203E-2,9.640686035E0,9.642439521E0
3.689575190E-1,-1.746826172E-1,6.939697266E-2,9.655044556E0,9.656873994E0
3.712768550E-1,-1.698913574E-1,5.264282227E-2,9.662216187E0,9.663853061E0
3.736346790E-1,-1.866455078E-1,5.981445312E-2,9.652648926E0,9.654638554E0
3.759845320E-1,-1.818542480E-1,5.503845215E-2,9.652648926E0,9.654518708E0
3.783038680E-1,-1.770629883E-1,5.503845215E-2,9.643081665E0,9.644864153E0
3.806537220E-1,-1.890258789E-1,5.264282227E-2,9.647857666E0,9.649852828E0
3.829730580E-1,-1.890258789E-1,6.460571289E-2,9.621536255E0,9.623609748E0
3.852923940E-1,-1.842498779E-1,7.177734375E-2,9.626327515E0,9.628358189E0
3.876422470E-1,-1.890258789E-1,7.177734375E-2,9.626327515E0,9.628450768E0
3.899615830E-1,-1.770629883E-1,6.939697266E-2,9.623931885E0,9.625810728E0
3.923114370E-1,-1.842498779E-1,6.700134277E-2,9.640686035E0,9.642679318E0
3.946307730E-1,-1.698913574E-1,7.417297363E-2,9.643081665E0,9.644863332E0
3.969806260E-1,-1.770629883E-1,6.700134277E-2,9.650253296E0,9.652110088E0
3.992999620E-1,-1.746826172E-1,5.743408203E-2,9.640686035E0,9.642439521E0
4.016498160E-1,-1.914215088E-1,5.024719238E-2,9.635894775E0,9.637926909E0
4.039691520E-1,-1.962127686E-1,5.264282227E-2,9.633499146E0,9.635640949E0
4.063190050E-1,-1.962127686E-1,7.177734375E-2,9.635894775E0,9.638159553E0
4.086383410E-1,-1.818542480E-1,5.981445312E-2,9.621536255E0,9.623440582E0
4.109881950E-1,-1.842498779E-1,7.177734375E-2,9.626327515E0,9.628358189E0
4.133075300E-1,-1.890258789E-1,6.700134277E-2,9.626327515E0,9.628416349E0
4.156573840E-1,-1.938171387E-1,6.221008301E-2,9.619140625E0,9.621294172E0
4.180072370E-1,-1.818542480E-1,5.981445312E-2,9.635894775E0,9.637796266E0
4.203265730E-1,-1.842498779E-1,5.981445312E-2,9.635894775E0,9.637841766E0
4.226764270E-1,-1.746826172E-1,6.700134277E-2,9.631118774E0,9.632935796E0
4.249957630E-1,-1.746826172E-1,6.460571289E-2,9.643081665E0,9.644880088E0
4.273456160E-1,-1.770629883E-1,6.700134277E-2,9.628723145E0,9.630584088E0
4.296649520E-1,-1.962127686E-1,5.743408203E-2,9.643081665E0,9.645248681E0
4.320148060E-1,-1.866455078E-1,5.743408203E-2,9.635894775E0,9.637873383E0
4.343341420E-1,-1.914215088E-1,6.700134277E-2,9.631118774E0,9.633253875E0
4.366839950E-1,-1.890258789E-1,6.939697266E-2,9.635894775E0,9.637998488E0
4.390033310E-1,-1.794586182E-1,6.221008301E-2,9.638290405E0,9.640161691E0
4.413531850E-1,-1.794586182E-1,6.939697266E-2,9.650253296E0,9.652171259E0
4.436725210E-1,-1.794586182E-1,6.460571289E-2,9.635894775E0,9.637782287E0
4.460223740E-1,-1.842498779E-1,6.700134277E-2,9.643081665E0,9.645074453E0
4.483417100E-1,-1.866455078E-1,7.417297363E-2,9.631118774E0,9.633212705E0
4.506915640E-1,-1.794586182E-1,7.417297363E-2,9.635894775E0,9.637851169E0
4.530109000E-1,-1.938171387E-1,7.656860352E-2,9.643081665E0,9.645333163E0
4.553607530E-1,-1.818542480E-1,8.135986328E-2,9.635894775E0,9.637954063E0
4.576800890E-1,-1.674957275E-1,8.613586426E-2,9.640686035E0,9.642525677E0
4.599994250E-1,-1.794586182E-1,6.939697266E-2,9.659820557E0,9.661736620E0
4.623492780E-1,-1.746826172E-1,5.981445312E-2,9.659820557E0,9.661585013E0
4.646686140E-1,-1.818542480E-1,6.221008301E-2,9.640686035E0,9.642601739E0
4.670184680E-1,-1.746826172E-1,5.743408203E-2,9.643081665E0,9.644834715E0
4.693378040E-1,-1.722869873E-1,6.221008301E-2,9.650253296E0,9.651991586E0
4.716876570E-1,-1.746826172E-1,7.896423340E-2,9.650253296E0,9.652157170E0
4.740375110E-1,-1.818542480E-1,7.177734375E-2,9.640686035E0,9.642668209E0
4.763568470E-1,-1.818542480E-1,8.135986328E-2,9.635894775E0,9.637954063E0
4.787067000E-1,-1.627044678E-1,8.613586426E-2,9.628723145E0,9.630482933E0
4.810260360E-1,-1.651000977E-1,7.896423340E-2,9.635894775E0,9.637632568E0
4.833758900E-1,-1.722869873E-1,6.939697266E-2,9.635894775E0,9.637684726E0
4.856952260E-1,-1.818542480E-1,6.700134277E-2,9.652648926E0,9.654594317E0
4.880450790E-1,-1.770629883E-1,7.656860352E-2,9.645462036E0,9.647390940E0
4.903644150E-1,-1.770629883E-1,7.656860352E-2,9.635894775E0,9.637825594E0
4.927142690E-1,-1.842498779E-1,6.939697266E-2,9.640686035E0,9.642696261E0
4.950336050E-1,-1.818542480E-1,5.981445312E-2,9.650253296E0,9.652151958E0
4.973834580E-1,-1.962127686E-1,6.460571289E-2,9.633499146E0,9.635713733E0
4.997027940E-1,-1.818542480E-1,7.656860352E-2,9.635894775E0,9.637914808E0
5.020526480E-1,-1.722869873E-1,6.700134277E-2,9.647857666E0,9.649628466E0
5.043719840E-1,-1.674957275E-1,7.177734375E-2,9.643081665E0,9.644803306E0
5.067218370E-1,-1.914215088E-1,5.743408203E-2,9.638290405E0,9.640362172E0
5.090411730E-1,-1.938171387E-1,6.460571289E-2,9.638290405E0,9.640455431E0
5.113910270E-1,-1.890258789E-1,6.221008301E-2,9.631118774E0,9.633174437E0
5.137103620E-1,-1.890258789E-1,7.656860352E-2,9.638290405E0,9.640447887E0
5.160602160E-1,-1.818542480E-1,7.656860352E-2,9.621536255E0,9.623559301E0
5.183795520E-1,-1.890258789E-1,7.656860352E-2,9.635894775E0,9.638052794E0
5.207294050E-1,-1.866455078E-1,7.656860352E-2,9.628723145E0,9.630836344E0
5.230792590E-1,-1.698913574E-1,7.417297363E-2,9.633499146E0,9.635282585E0
5.253985950E-1,-1.794586182E-1,5.981445312E-2,9.631118774E0,9.632976280E0
5.277484480E-1,-1.842498779E-1,6.221008301E-2,9.640686035E0,9.642647216E0
5.300677840E-1,-1.794586182E-1,5.743408203E-2,9.647857666E0,9.649697488E0
5.324176380E-1,-1.914215088E-1,5.743408203E-2,9.635894775E0,9.637967057E0
5.347369740E-1,-1.818542480E-1,5.981445312E-2,9.643081665E0,9.644981738E0
5.370868270E-1,-1.794586182E-1,5.503845215E-2,9.650253296E0,9.652078704E0
5.394061630E-1,-1.794586182E-1,5.024719238E-2,9.650253296E0,9.652052572E0
5.417560170E-1,-1.818542480E-1,5.743408203E-2,9.621536255E0,9.623426081E0
5.440753530E-1,-1.794586182E-1,6.221008301E-2,9.626327515E0,9.628201125E0
5.464252060E-1,-1.866455078E-1,6.221008301E-2,9.647857666E0,9.649863428E0
5.487445420E-1,-1.938171387E-1,6.221008301E-2,9.638290405E0,9.640439674E0
5.510943960E-1,-1.938171387E-1,6.939697266E-2,9.640686035E0,9.642883814E0
5.534137320E-1,-1.914215088E-1,5.743408203E-2,9.621536255E0,9.623611628E0
5.557635850E-1,-1.866455078E-1,8.135986328E-2,9.623931885E0,9.626085440E0
5.580829210E-1,-1.770629883E-1,8.135986328E-2,9.650253296E0,9.652220439E0
5.604327750E-1,-1.818542480E-1,8.375549316E-2,9.631118774E0,9.633199614E0
5.627521110E-1,-1.818542480E-1,6.460571289E-2,9.633499146E0,9.635432043E0
5.651019640E-1,-1.842498779E-1,6.221008301E-2,9.635894775E0,9.637856932E0
5.674518180E-1,-1.890258789E-1,5.743408203E-2,9.631118774E0,9.633144777E0
5.697711530E-1,-1.794586182E-1,6.700134277E-2,9.650253296E0,9.652154332E0
5.721210070E-1,-1.794586182E-1,6.221008301E-2,9.643081665E0,9.644952021E0
5.744403430E-1,-1.746826172E-1,5.981445312E-2,9.643081665E0,9.644849184E0
5.767901960E-1,-1.818542480E-1,5.981445312E-2,9.650253296E0,9.652151958E0
5.791095320E-1,-1.914215088E-1,5.264282227E-2,9.655044556E0,9.657085421E0
5.814593860E-1,-1.866455078E-1,6.221008301E-2,9.631118774E0,9.633128022E0
5.837787220E-1,-1.794586182E-1,7.896423340E-2,9.640686035E0,9.642679502E0
5.861285750E-1,-1.866455078E-1,8.375549316E-2,9.640686035E0,9.642856359E0
5.884479110E-1,-1.938171387E-1,7.417297363E-2,9.638290405E0,9.640524293E0
5.907977650E-1,-1.914215088E-1,7.896423340E-2,9.628723145E0,9.630949431E0
5.931171010E-1,-1.698913574E-1,7.177734375E-2,9.611968994E0,9.613738243E0
5.954669540E-1,-1.722869873E-1,6.939697266E-2,9.655044556E0,9.656830956E0
5.977862900E-1,-1.770629883E-1,5.981445312E-2,9.652648926E0,9.654458056E0
6.001666610E-1,-1.890258789E-1,5.981445312E-2,9.623931885E0,9.625973897E0
6.024859970E-1,-1.770629883E-1,7.417297363E-2,9.614364624E0,9.616280989E0
6.048968860E-1,-1.746826172E-1,5.503845215E-2,9.640686035E0,9.642425549E0
6.071551870E-1,-1.770629883E-1,5.264282227E-2,9.650253296E0,9.652021096E0
6.095050400E-1,-1.914215088E-1,6.460571289E-2,9.619140625E0,9.621261999E0
6.118548940E-1,-1.818542480E-1,6.221008301E-2,9.619140625E0,9.621060619E0
6.141742300E-1,-1.914215088E-1,5.503845215E-2,9.635894775E0,9.637953079E0
6.165240830E-1,-1.842498779E-1,6.221008301E-2,9.628723145E0,9.630686762E0
6.188434190E-1,-1.770629883E-1,6.939697266E-2,9.611968994E0,9.613850175E0
6.211932730E-1,-1.722869873E-1,6.221008301E-2,9.626327515E0,9.628070124E0
6.235126090E-1,-1.794586182E-1,5.981445312E-2,9.640686035E0,9.642541698E0
6.258624620E-1,-1.770629883E-1,5.503845215E-2,9.645462036E0,9.647244084E0
6.281817980E-1,-1.746826172E-1,6.460571289E-2,9.628723145E0,9.630524249E0
6.305316520E-1,-1.818542480E-1,6.700134277E-2,9.631118774E0,9.633068514E0
6.328509870E-1,-1.866455078E-1,5.743408203E-2,9.657424927E0,9.659399124E0
6.352008410E-1,-1.914215088E-1,6.221008301E-2,9.626327515E0,9.628431529E0
6.375201770E-1,-1.890258789E-1,6.221008301E-2,9.600006104E0,9.602068426E0
6.398700300E-1,-1.866455078E-1,5.743408203E-2,9.631118774E0,9.633098363E0
6.421893660E-1,-1.962127686E-1,6.460571289E-2,9.638290405E0,9.640503892E0
6.445392200E-1,-1.794586182E-1,6.221008301E-2,9.616760254E0,9.618635728E0
6.468585560E-1,-1.722869873E-1,6.700134277E-2,9.607177734E0,9.608956031E0
6.492084090E-1,-1.842498779E-1,7.656860352E-2,9.633499146E0,9.635565191E0
6.515277450E-1,-1.890258789E-1,7.177734375E-2,9.628723145E0,9.630845870E0
6.538775990E-1,-1.818542480E-1,6.460571289E-2,9.604797363E0,9.606736035E0
6.562274520E-1,-1.866455078E-1,6.939697266E-2,9.616760254E0,9.618821667E0
6.585467880E-1,-1.866455078E-1,6.939697266E-2,9.635894775E0,9.637952096E0
6.608966420E-1,-1.842498779E-1,6.460571289E-2,9.631118774E0,9.633097672E0
6.632159780E-1,-1.818542480E-1,7.896423340E-2,9.621536255E0,9.623578660E0
6.655658310E-1,-1.746826172E-1,6.460571289E-2,9.621536255E0,9.623338704E0
6.678851670E-1,-1.914215088E-1,6.221008301E-2,9.621536255E0,9.623641317E0
6.702350210E-1,-1.794586182E-1,6.700134277E-2,9.616760254E0,9.618667910E0
6.725543570E-1,-1.722869873E-1,6.939697266E-2,9.607177734E0,9.608973034E0
6.749042100E-1,-1.914215088E-1,5.743408203E-2,9.645462036E0,9.647532263E0
6.772235460E-1,-1.890258789E-1,5.503845215E-2,9.664611816E0,9.666616863E0
6.795734000E-1,-1.842498779E-1,5.503845215E-2,9.628723145E0,9.630643106E0
6.818927360E-1,-1.866455078E-1,6.700134277E-2,9.628723145E0,9.630765033E0
6.842425890E-1,-1.914215088E-1,6.460571289E-2,9.650253296E0,9.652367832E0
6.865619250E-1,-1.842498779E-1,5.981445312E-2,9.659820557E0,9.661762726E0
6.889117780E-1,-1.866455078E-1,7.177734375E-2,9.633499146E0,9.635574416E0
6.912311140E-1,-1.770629883E-1,7.896423340E-2,9.619140625E0,9.621094169E0
6.935809680E-1,-2.081756592E-1,7.177734375E-2,9.633499146E0,9.636015508E0
6.959003040E-1,-1.938171387E-1,7.417297363E-2,9.647857666E0,9.650089339E0
6.982501570E-1,-1.842498779E-1,7.417297363E-2,9.643081665E0,9.645126938E0
7.005694930E-1,-1.698913574E-1,8.135986328E-2,9.652648926E0,9.654486718E0
7.029193470E-1,-1.866455078E-1,5.981445312E-2,9.664611816E0,9.666598982E0
7.052386830E-1,-1.890258789E-1,6.460571289E-2,9.650253296E0,9.652320620E0
7.075885360E-1,-1.962127686E-1,6.221008301E-2,9.626327515E0,9.628527975E0
7.099078720E-1,-1.866455078E-1,8.375549316E-2,9.635894775E0,9.638066178E0
7.122577260E-1,-1.818542480E-1,7.896423340E-2,9.645462036E0,9.647499376E0
7.145770620E-1,-1.722869873E-1,5.743408203E-2,9.652648926E0,9.654357191E0
7.169269150E-1,-1.866455078E-1,5.981445312E-2,9.640686035E0,9.642678131E0
7.192462510E-1,-1.890258789E-1,5.264282227E-2,9.667007446E0,9.668998656E0
7.215961050E-1,-1.842498779E-1,4.785156250E-2,9.647857666E0,9.649735506E0
7.239154410E-1,-1.722869873E-1,5.264282227E-2,9.578475952E0,9.580169917E0
7.262652940E-1,-1.292114258E-1,5.981445312E-2,9.379867554E0,9.380948176E0
7.286151480E-1,-8.613586426E-2,7.417297363E-2,8.961120605E0,8.961841525E0
7.309344840E-1,-7.656860352E-2,5.503845215E-2,8.566299438E0,8.566818432E0
7.332843370E-1,-2.249298096E-1,5.024719238E-2,9.028121948E0,9.031063288E0
7.356036730E-1,-2.871398926E-1,4.785156250E-2,1.001875305E1,1.002298118E1
7.379535270E-1,-2.847442627E-1,4.785156250E-2,1.071028137E1,1.071417268E1
7.402728620E-1,-3.349914551E-1,4.785156250E-2,1.013121033E1,1.013686005E1
7.426227160E-1,-2.225341797E-1,5.503845215E-2,9.678970337E0,9.681684640E0
7.449420520E-1,-1.794586182E-1,5.743408203E-2,9.875183105E0,9.876980583E0
7.472919050E-1,-1.986083984E-1,5.503845215E-2,9.800994873E0,9.803161481E0
7.496112410E-1,-1.363983154E-1,1.028900146E-1,9.554534912E0,9.556062382E0
7.519610950E-1,-1.268157959E-1,8.135986328E-2,9.614364624E0,9.615545164E0
7.542804310E-1,-1.603240967E-1,8.375549316E-2,9.760330200E0,9.762006168E0
7.566302840E-1,-1.818542480E-1,7.896423340E-2,9.671783447E0,9.673815244E0
7.589496200E-1,-1.579284668E-1,8.375549316E-2,9.406188965E0,9.407887501E0
7.612994740E-1,-1.674957275E-1,6.939697266E-2,9.487548828E0,9.489280980E0
7.636188100E-1,-2.010040283E-1,5.981445312E-2,9.664611816E0,9.666886880E0
7.659686630E-1,-1.890258789E-1,5.981445312E-2,9.580856323E0,9.582907515E0
7.682879990E-1,-1.866455078E-1,5.024719238E-2,9.516250610E0,9.518213436E0
7.706378530E-1,-1.890258789E-1,5.264282227E-2,9.600006104E0,9.602011208E0
7.729571890E-1,-1.866455078E-1,4.785156250E-2,9.631118774E0,9.633045996E0
7.753070420E-1,-1.962127686E-1,5.503845215E-2,9.580856323E0,9.583023352E0
7.776263780E-1,-1.914215088E-1,6.221008301E-2,9.597610474E0,9.599720782E0
7.799762320E-1,-1.842498779E-1,7.417297363E-2,9.633499146E0,9.635546452E0
7.822955680E-1,-1.818542480E-1,8.853149414E-2,9.628723145E0,9.630847221E0
7.846454210E-1,-1.674957275E-1,9.571838379E-2,9.628723145E0,9.630655545E0
7.869647570E-1,-1.483612061E-1,1.004943848E-1,9.628723145E0,9.630390416E0
7.893146110E-1,-1.603240967E-1,1.148529053E-1,9.659820557E0,9.661833583E0
7.916339460E-1,-1.459655762E-1,1.076812744E-1,9.633499146E0,9.635206640E0
7.939838000E-1,-1.435699463E-1,1.100769043E-1,9.628723145E0,9.630422558E0
7.963031360E-1,-1.387786865E-1,1.052856445E-1,9.657424927E0,9.658995849E0
7.986529890E-1,-1.507415771E-1,8.135986328E-2,9.669403076E0,9.670920241E0
8.010028430E-1,-1.674957275E-1,8.135986328E-2,9.700500488E0,9.702287564E0
8.033221790E-1,-1.722869873E-1,8.135986328E-2,9.717254639E0,9.719122386E0
8.056415150E-1,-1.794586182E-1,7.417297363E-2,9.690933228E0,9.692878512E0
8.079913680E-1,-1.794586182E-1,6.460571289E-2,9.647857666E0,9.649742838E0
8.103412220E-1,-1.890258789E-1,6.460571289E-2,9.674179077E0,9.676241290E0
8.126605580E-1,-1.842498779E-1,7.656860352E-2,9.688537598E0,9.690591909E0
8.150104110E-1,-1.698913574E-1,6.939697266E-2,9.655044556E0,9.656788513E0
8.173297470E-1,-1.698913574E-1,7.417297363E-2,9.640686035E0,9.642468145E0
8.196796010E-1,-1.890258789E-1,7.177734375E-2,9.647857666E0,9.649976182E0
8.219989370E-1,-1.914215088E-1,5.981445312E-2,9.674179077E0,9.676257581E0
8.243487900E-1,-1.914215088E-1,6.221008301E-2,9.650253296E0,9.652352095E0
8.266681260E-1,-2.033843994E-1,6.939697266E-2,9.631118774E0,9.633515973E0
8.290179800E-1,-1.794586182E-1,9.092712402E-2,9.669403076E0,9.671495695E0
8.313373160E-1,-1.746826172E-1,9.809875488E-2,9.681365967E0,9.683438664E0
8.336871690E-1,-1.698913574E-1,1.004943848E-1,9.671783447E0,9.673797457E0
8.360065050E-1,-1.555328369E-1,1.004943848E-1,9.643081665E0,9.644859438E0
8.383563590E-1,-1.651000977E-1,9.092712402E-2,9.652648926E0,9.654488959E0
8.406756950E-1,-1.770629883E-1,8.375549316E-2,9.652648926E0,9.654636066E0
8.430255480E-1,-1.818542480E-1,7.417297363E-2,9.652648926E0,9.654646751E0
8.453448840E-1,-1.722869873E-1,9.332275391E-2,9.645462036E0,9.647451987E0
8.476947370E-1,-1.746826172E-1,7.177734375E-2,9.662216187E0,9.664061653E0
8.500445910E-1,-1.770629883E-1,6.460571289E-2,9.640686035E0,9.642528321E0
8.523639270E-1,-1.651000977E-1,6.939697266E-2,9.614364624E0,9.616032503E0
8.547137800E-1,-1.794586182E-1,7.656860352E-2,9.619140625E0,9.621119192E0
8.570331160E-1,-1.842498779E-1,5.503845215E-2,9.638290405E0,9.640208462E0
8.593829700E-1,-1.914215088E-1,6.700134277E-2,9.631118774E0,9.633253875E0
8.617023060E-1,-1.866455078E-1,7.177734375E-2,9.631118774E0,9.633194557E0
8.640521590E-1,-1.890258789E-1,6.939697266E-2,9.631118774E0,9.633223530E0
8.663714950E-1,-1.986083984E-1,6.939697266E-2,9.602401733E0,9.604706153E0
8.687213490E-1,-1.914215088E-1,5.264282227E-2,9.607177734E0,9.609228766E0
8.710406850E-1,-1.962127686E-1,5.503845215E-2,9.621536255E0,9.623694124E0
8.733905380E-1,-1.986083984E-1,5.264282227E-2,9.628723145E0,9.630915115E0
8.757098740E-1,-1.986083984E-1,6.700134277E-2,9.626327515E0,9.628609240E0
8.780597280E-1,-1.890258789E-1,6.221008301E-2,9.628723145E0,9.630779318E0
8.803790640E-1,-1.794586182E-1,6.460571289E-2,9.643081665E0,9.644967770E0
8.827289170E-1,-1.962127686E-1,5.503845215E-2,9.655044556E0,9.657194937E0
8.850787710E-1,-1.962127686E-1,5.264282227E-2,9.650253296E0,9.652391382E0
8.874286240E-1,-2.033843994E-1,5.264282227E-2,9.621536255E0,9.623829611E0
8.897479600E-1,-2.081756592E-1,5.264282227E-2,9.590438843E0,9.592842413E0
8.920978140E-1,-2.010040283E-1,5.024719238E-2,9.607177734E0,9.609411606E0
8.944171500E-1,-2.033843994E-1,5.264282227E-2,9.597610474E0,9.599909546E0
8.967670030E-1,-2.010040283E-1,5.264282227E-2,9.607177734E0,9.609424432E0
8.990863390E-1,-2.129669189E-1,5.981445312E-2,9.600006104E0,9.602554341E0
9.014361930E-1,-2.081756592E-1,6.939697266E-2,9.626327515E0,9.628828302E0
9.037860460E-1,-2.081756592E-1,6.700134277E-2,9.619140625E0,9.621626300E0
9.061053820E-1,-2.129669189E-1,7.417297363E-2,9.597610474E0,9.600259546E0
9.084552360E-1,-2.129669189E-1,6.939697266E-2,9.592819214E0,9.595433879E0
9.107745710E-1,-2.081756592E-1,6.700134277E-2,9.602401733E0,9.604891740E0
9.131244250E-1,-2.010040283E-1,6.460571289E-2,9.633499146E0,9.635812488E0
9.154437610E-1,-1.986083984E-1,6.460571289E-2,9.628723145E0,9.630987934E0
9.177936140E-1,-1.746826172E-1,8.375549316E-2,9.633499146E0,9.635446787E0
9.201129500E-1,-1.866455078E-1,6.700134277E-2,9.659820557E0,9.661855873E0
9.224628040E-1,-1.842498779E-1,6.221008301E-2,9.647857666E0,9.649817390E0
9.247821400E-1,-1.794586182E-1,6.700134277E-2,9.633499146E0,9.635403487E0
9.271319930E-1,-1.866455078E-1,6.700134277E-2,9.621536255E0,9.623579668E0
9.294513290E-1,-1.818542480E-1,5.981445312E-2,9.645462036E0,9.647361641E0
9.318011830E-1,-1.842498779E-1,5.264282227E-2,9.650253296E0,9.652155612E0
9.341205190E-1,-1.746826172E-1,6.700134277E-2,9.623931885E0,9.625750263E0
9.364703720E-1,-1.818542480E-1,5.743408203E-2,9.647857666E0,9.649742338E0
9.387897080E-1,-1.914215088E-1,4.785156250E-2,9.650253296E0,9.652270232E0
9.411395620E-1,-1.938171387E-1,4.785156250E-2,9.626327515E0,9.628397389E0
9.434588980E-1,-2.033843994E-1,5.024719238E-2,9.604797363E0,9.607081887E0
9.458087510E-1,-2.105712891E-1,5.503845215E-2,9.628723145E0,9.631182632E0
9.481280870E-1,-2.057800293E-1,6.221008301E-2,9.638290405E0,9.640687603E0
9.504779410E-1,-2.105712891E-1,5.981445312E-2,9.619140625E0,9.621631068E0
9.527972770E-1,-2.033843994E-1,5.981445312E-2,9.631118774E0,9.633451709E0
9.551471300E-1,-2.010040283E-1,5.264282227E-2,9.633499146E0,9.635739706E0
9.574664660E-1,-1.962127686E-1,5.981445312E-2,9.635894775E0,9.638077886E0
9.598163200E-1,-1.890258789E-1,5.264282227E-2,9.600006104E0,9.602011208E0
9.621661730E-1,-1.842498779E-1,5.981445312E-2,9.638290405E0,9.640236912E0
9.644855090E-1,-2.010040283E-1,5.503845215E-2,9.647857666E0,9.650108258E0
9.668353620E-1,-1.938171387E-1,4.785156250E-2,9.604797363E0,9.606871876E0
9.691546980E-1,-1.842498779E-1,5.503845215E-2,9.611968994E0,9.613892302E0
9.715045520E-1,-1.914215088E-1,4.785156250E-2,9.609573364E0,9.611598837E0
9.738238880E-1,-1.962127686E-1,5.264282227E-2,9.621536255E0,9.623680721E0
9.761737410E-1,-1.914215088E-1,5.503845215E-2,9.626327515E0,9.628387863E0
9.784930770E-1,-2.129669189E-1,5.264282227E-2,9.631118774E0,9.633616923E0
9.808429310E-1,-1.890258789E-1,5.264282227E-2,9.602401733E0,9.604406338E0
9.831622670E-1,-1.890258789E-1,5.024719238E-2,9.623931885E0,9.625919202E0
9.855121200E-1,-1.842498779E-1,5.024719238E-2,9.604797363E0,9.606695852E0
9.878314560E-1,-1.938171387E-1,5.503845215E-2,9.619140625E0,9.621250474E0
9.901813100E-1,-1.986083984E-1,5.981445312E-2,9.600006104E0,9.602246625E0
9.925006460E-1,-1.890258789E-1,5.743408203E-2,9.619140625E0,9.621169150E0
9.948504990E-1,-1.890258789E-1,5.024719238E-2,9.621536255E0,9.623524067E0
9.971698350E-1,-1.914215088E-1,5.503845215E-2,9.609573364E0,9.611637304E0
9.995196890E-1,-2.010040283E-1,5.264282227E-2,9.614364624E0,9.616609642E0
1.001839025E0,-1.914215088E-1,5.503845215E-2,9.604797363E0,9.606862329E0
1.004188878E0,-1.914215088E-1,5.024719238E-2,9.600006104E0,9.602045832E0
1.006508214E0,-1.938171387E-1,5.024719238E-2,9.623931885E0,9.626014481E0
1.008858068E0,-2.010040283E-1,4.785156250E-2,9.635894775E0,9.638109800E0
1.011177403E0,-1.890258789E-1,5.024719238E-2,9.621536255E0,9.623524067E0
1.013527257E0,-1.818542480E-1,5.264282227E-2,9.635894775E0,9.637754425E0
1.015877111E0,-1.962127686E-1,5.024719238E-2,9.650253296E0,9.652378614E0
1.018196446E0,-2.033843994E-1,4.785156250E-2,9.635894775E0,9.638159737E0
1.020546300E0,-2.033843994E-1,5.024719238E-2,9.623931885E0,9.626211867E0
1.022865636E0,-2.057800293E-1,5.743408203E-2,9.626327515E0,9.628698018E0
1.025215489E0,-2.033843994E-1,5.024719238E-2,9.633499146E0,9.635776864E0
1.027534825E0,-1.890258789E-1,4.785156250E-2,9.633499146E0,9.635472295E0
1.029884679E0,-2.010040283E-1,5.503845215E-2,9.633499146E0,9.635753091E0
1.032204015E0,-1.986083984E-1,6.700134277E-2,9.647857666E0,9.650134301E0
1.034553868E0,-1.938171387E-1,7.896423340E-2,9.623931885E0,9.626207216E0
1.036873204E0,-1.842498779E-1,8.375549316E-2,9.619140625E0,9.621269634E0
1.039223058E0,-1.842498779E-1,8.375549316E-2,9.631118774E0,9.633245136E0
1.041542394E0,-1.698913574E-1,6.939697266E-2,9.650253296E0,9.651998119E0
1.043892247E0,-1.770629883E-1,7.896423340E-2,9.647857666E0,9.649805397E0
1.046211583E0,-1.818542480E-1,7.656860352E-2,9.628723145E0,9.630744681E0
1.048561437E0,-1.603240967E-1,1.052856445E-1,9.607177734E0,9.609092200E0
1.050880773E0,-1.603240967E-1,1.052856445E-1,9.638290405E0,9.640198692E0
1.053230626E0,-1.627044678E-1,9.092712402E-2,9.650253296E0,9.652053106E0
1.055549962E0,-1.483612061E-1,9.571838379E-2,9.628723145E0,9.630341762E0
1.057899816E0,-1.555328369E-1,9.809875488E-2,9.623931885E0,9.625688482E0
1.060219152E0,-1.794586182E-1,7.177734375E-2,9.662216187E0,9.664149162E0
1.062569005E0,-1.794586182E-1,6.460571289E-2,9.659820557E0,9.661703394E0
1.064888341E0,-1.890258789E-1,6.700134277E-2,9.626327515E0,9.628416349E0
1.067238195E0,-1.794586182E-1,8.135986328E-2,9.633499146E0,9.635514029E0
1.069557530E0,-1.842498779E-1,8.613586426E-2,9.650253296E0,9.652396391E0
1.071907384E0,-1.914215088E-1,7.656860352E-2,9.645462036E0,9.647665149E0
1.074257237E0,-1.866455078E-1,8.375549316E-2,9.628723145E0,9.630896164E0
1.076576573E0,-1.746826172E-1,9.809875488E-2,9.633499146E0,9.635582140E0
1.078926427E0,-1.627044678E-1,7.896423340E-2,9.662216187E0,9.663908616E0
1.081245763E0,-1.698913574E-1,6.700134277E-2,9.674179077E0,9.675902701E0
1.083595616E0,-1.698913574E-1,5.981445312E-2,9.659820557E0,9.661499575E0
1.085914952E0,-1.818542480E-1,5.503845215E-2,9.664611816E0,9.666479285E0
1.088264806E0,-1.818542480E-1,5.503845215E-2,9.671783447E0,9.673649531E0
1.090584142E0,-1.986083984E-1,5.981445312E-2,9.638290405E0,9.640522029E0
1.092933995E0,-1.962127686E-1,6.460571289E-2,9.628723145E0,9.630938830E0
1.095253331E0,-1.986083984E-1,7.656860352E-2,9.614364624E0,9.616720604E0
1.097603185E0,-1.866455078E-1,7.896423340E-2,9.621536255E0,9.623670391E0
1.099922521E0,-1.746826172E-1,7.177734375E-2,9.621536255E0,9.623389523E0
1.102272374E0,-1.794586182E-1,6.939697266E-2,9.623931885E0,9.625855092E0
1.104622228E0,-1.842498779E-1,7.177734375E-2,9.645462036E0,9.647488683E0
1.106941564E0,-1.890258789E-1,6.460571289E-2,9.626327515E0,9.628399976E0
1.109260900E0,-1.866455078E-1,5.264282227E-2,9.600006104E0,9.601964643E0
1.111610753E0,-1.818542480E-1,5.264282227E-2,9.602401733E0,9.604267868E0
1.113930089E0,-1.938171387E-1,5.981445312E-2,9.626327515E0,9.628464274E0
1.116279943E0,-1.866455078E-1,6.939697266E-2,9.619140625E0,9.621201528E0
1.118599278E0,-1.794586182E-1,8.375549316E-2,9.631118774E0,9.633154687E0
1.120949132E0,-1.794586182E-1,7.656860352E-2,9.643081665E0,9.645055321E0
1.123298986E0,-1.770629883E-1,7.417297363E-2,9.645462036E0,9.647372224E0
1.125618321E0,-1.842498779E-1,7.177734375E-2,9.640686035E0,9.642713686E0
1.127968175E0,-1.890258789E-1,7.417297363E-2,9.633499146E0,9.635638962E0
1.130287511E0,-1.794586182E-1,8.135986328E-2,9.635894775E0,9.637909158E0
1.132637364E0,-1.938171387E-1,7.656860352E-2,9.645462036E0,9.647712979E0
1.134956700E0,-1.746826172E-1,8.375549316E-2,9.645462036E0,9.647407263E0
1.137306554E0,-1.818542480E-1,5.981445312E-2,9.643081665E0,9.644981738E0
1.139625890E0,-1.914215088E-1,5.743408203E-2,9.631118774E0,9.633192083E0
1.141975743E0,-1.938171387E-1,5.743408203E-2,9.633499146E0,9.635619832E0
1.144295079E0,-1.962127686E-1,6.221008301E-2,9.623931885E0,9.626132893E0
1.146644933E0,-1.914215088E-1,6.700134277E-2,9.623931885E0,9.626068579E0
1.148964269E0,-1.986083984E-1,5.264282227E-2,9.607177734E0,9.609374620E0
1.151314122E0,-1.866455078E-1,5.503845215E-2,9.604797363E0,9.606768352E0
1.153633458E0,-1.962127686E-1,5.024719238E-2,9.623931885E0,9.626063014E0
1.155983312E0,-1.986083984E-1,6.700134277E-2,9.602401733E0,9.604689143E0
1.158302648E0,-1.938171387E-1,8.135986328E-2,9.614364624E0,9.616662188E0
1.160652501E0,-1.890258789E-1,7.896423340E-2,9.623931885E0,9.626111939E0
1.162971837E0,-1.866455078E-1,8.135986328E-2,9.650253296E0,9.652400978E0
1.165321691E0,-1.890258789E-1,6.939697266E-2,9.678970337E0,9.681064689E0
1.167671544E0,-1.866455078E-1,7.896423340E-2,9.645462036E0,9.647590880E0
1.169990880E0,-1.794586182E-1,7.417297363E-2,9.643081665E0,9.645036600E0
1.172371251E0,-1.746826172E-1,6.460571289E-2,9.664611816E0,9.666406234E0
1.174690587E0,-1.962127686E-1,5.024719238E-2,9.657424927E0,9.659548667E0
1.177040441E0,-1.866455078E-1,5.743408203E-2,9.633499146E0,9.635478245E0
1.179359777E0,-1.722869873E-1,7.417297363E-2,9.647857666E0,9.649680926E0
1.181709630E0,-1.531372070E-1,8.613586426E-2,9.638290405E0,9.639891718E0
1.184028966E0,-1.579284668E-1,7.177734375E-2,9.647857666E0,9.649417129E0
1.186378820E0,-1.698913574E-1,6.700134277E-2,9.619140625E0,9.620874109E0
1.188698155E0,-1.722869873E-1,7.656860352E-2,9.616760254E0,9.618608181E0
1.191048009E0,-1.746826172E-1,8.135986328E-2,9.623931885E0,9.625860916E0
1.193367345E0,-1.842498779E-1,8.135986328E-2,9.645462036E0,9.647564736E0
1.195717198E0,-1.842498779E-1,6.939697266E-2,9.621536255E0,9.623550481E0
1.198036534E0,-1.962127686E-1,6.939697266E-2,9.619140625E0,9.621391882E0
1.200386388E0,-1.818542480E-1,7.417297363E-2,9.631118774E0,9.633121065E0
1.202736241E0,-1.722869873E-1,8.135986328E-2,9.633499146E0,9.635383128E0
1.205055577E0,-1.770629883E-1,6.700134277E-2,9.628723145E0,9.630584088E0
1.207405431E0,-1.890258789E-1,7.417297363E-2,9.633499146E0,9.635638962E0
1.209816320E0,-1.938171387E-1,7.417297363E-2,9.623931885E0,9.626169105E0
1.212074620E0,-1.890258789E-1,6.939697266E-2,9.602401733E0,9.604512782E0
1.214393956E0,-1.986083984E-1,5.503845215E-2,9.619140625E0,9.621348185E0
1.216743810E0,-2.033843994E-1,6.221008301E-2,9.616760254E0,9.619111866E0
1.219063146E0,-1.962127686E-1,5.981445312E-2,9.607177734E0,9.609367369E0
1.221412999E0,-1.962127686E-1,5.743408203E-2,9.600006104E0,9.602182841E0
1.223732335E0,-1.962127686E-1,5.024719238E-2,9.592819214E0,9.594957254E0
1.226082189E0,-2.010040283E-1,5.264282227E-2,9.621536255E0,9.623779600E0
1.228401525E0,-1.842498779E-1,5.743408203E-2,9.657424927E0,9.659353131E0
1.230751378E0,-1.794586182E-1,5.024719238E-2,9.645462036E0,9.647262206E0
1.233070714E0,-1.842498779E-1,6.221008301E-2,9.650253296E0,9.652212533E0
1.235420568E0,-1.890258789E-1,6.221008301E-2,9.635894775E0,9.637949419E0
1.237739903E0,-1.866455078E-1,6.460571289E-2,9.633499146E0,9.635523661E0
1.240089757E0,-1.890258789E-1,4.785156250E-2,9.635894775E0,9.637867434E0
1.242409093E0,-1.866455078E-1,4.785156250E-2,9.633499146E0,9.635425891E0
1.244758946E0,-1.794586182E-1,5.981445312E-2,9.643081665E0,9.644936867E0
1.247108800E0,-1.866455078E-1,7.177734375E-2,9.633499146E0,9.635574416E0
1.249428136E0,-1.866455078E-1,6.460571289E-2,9.652648926E0,9.654669426E0
1.251777989E0,-1.842498779E-1,7.896423340E-2,9.638290405E0,9.640374749E0
1.254097325E0,-1.842498779E-1,7.896423340E-2,9.628723145E0,9.630809559E0
1.256447179E0,-1.770629883E-1,7.177734375E-2,9.635894775E0,9.637788720E0
1.258766515E0,-1.842498779E-1,7.417297363E-2,9.640686035E0,9.642731816E0
1.261116368E0,-1.890258789E-1,5.981445312E-2,9.647857666E0,9.649894616E0
1.263435704E0,-1.674957275E-1,6.221008301E-2,9.645462036E0,9.647116813E0
1.265785558E0,-1.914215088E-1,5.743408203E-2,9.628723145E0,9.630796969E0
1.268104894E0,-1.938171387E-1,7.177734375E-2,9.638290405E0,9.640506159E0
1.270454747E0,-1.746826172E-1,6.460571289E-2,9.645462036E0,9.647260015E0
1.272774083E0,-1.890258789E-1,6.700134277E-2,9.643081665E0,9.645166871E0
1.275123937E0,-1.842498779E-1,6.700134277E-2,9.628723145E0,9.630718903E0
1.277443273E0,-1.938171387E-1,6.939697266E-2,9.616760254E0,9.618963499E0
1.279793126E0,-1.746826172E-1,7.177734375E-2,9.631118774E0,9.632970199E0
1.282112462E0,-1.794586182E-1,6.700134277E-2,9.655044556E0,9.656944649E0
1.284462316E0,-1.962127686E-1,6.460571289E-2,9.623931885E0,9.626148673E0
1.286781652E0,-1.890258789E-1,8.135986328E-2,9.631118774E0,9.633317137E0
1.289131505E0,-1.866455078E-1,7.896423340E-2,9.635894775E0,9.638025732E0
1.291450841E0,-1.938171387E-1,6.939697266E-2,9.626327515E0,9.628528571E0
1.293800695E0,-1.770629883E-1,7.656860352E-2,9.621536255E0,9.623469954E0
1.296150548E0,-1.866455078E-1,7.417297363E-2,9.640686035E0,9.642777888E0
1.298469884E0,-1.746826172E-1,8.135986328E-2,9.657424927E0,9.659347269E0
1.300819737E0,-1.914215088E-1,7.177734375E-2,9.633499146E0,9.635668112E0
1.303139073E0,-1.866455078E-1,5.981445312E-2,9.631118774E0,9.633112849E0
1.305488927E0,-1.842498779E-1,5.743408203E-2,9.643081665E0,9.645012737E0
1.307808263E0,-1.938171387E-1,5.264282227E-2,9.640686035E0,9.642777794E0
1.310158116E0,-2.010040283E-1,5.503845215E-2,9.616760254E0,9.619018122E0
1.312477452E0,-1.986083984E-1,5.743408203E-2,9.621536255E0,9.623757264E0
1.314827306E0,-2.033843994E-1,7.656860352E-2,9.623931885E0,9.626385245E0
1.317146642E0,-1.938171387E-1,6.939697266E-2,9.621536255E0,9.623738407E0
1.319496495E0,-2.010040283E-1,7.177734375E-2,9.614364624E0,9.616733423E0
1.321815831E0,-2.105712891E-1,6.460571289E-2,9.611968994E0,9.614492296E0
1.324165685E0,-2.057800293E-1,6.700134277E-2,9.607177734E0,9.609614905E0
1.326485021E0,-1.914215088E-1,6.939697266E-2,9.611968994E0,9.614125341E0
1.328834874E0,-1.722869873E-1,8.613586426E-2,9.631118774E0,9.633044744E0
1.331154210E0,-1.698913574E-1,8.135986328E-2,9.652648926E0,9.654486718E0
1.333504064E0,-1.770629883E-1,6.221008301E-2,9.647857666E0,9.649682841E0
1.335823400E0,-1.770629883E-1,6.700134277E-2,9.640686035E0,9.642544670E0
1.338173253E0,-1.770629883E-1,6.700134277E-2,9.645462036E0,9.647319751E0
1.340523107E0,-1.938171387E-1,5.264282227E-2,9.652648926E0,9.654738092E0
1.342842443E0,-2.033843994E-1,5.024719238E-2,9.643081665E0,9.645357121E0
1.345192296E0,-1.914215088E-1,5.264282227E-2,9.635894775E0,9.637939696E0
1.347511632E0,-1.986083984E-1,5.981445312E-2,9.623931885E0,9.626166838E0
1.349861486E0,-2.010040283E-1,5.503845215E-2,9.611968994E0,9.614227987E0
1.352180821E0,-2.010040283E-1,6.221008301E-2,9.600006104E0,9.602311696E0
1.354530675E0,-2.057800293E-1,5.024719238E-2,9.602401733E0,9.604737854E0
1.356850011E0,-1.962127686E-1,5.024719238E-2,9.609573364E0,9.611707677E0
1.359199864E0,-1.986083984E-1,5.503845215E-2,9.604797363E0,9.607008219E0
1.361519200E0,-2.010040283E-1,5.024719238E-2,9.592819214E0,9.595056429E0
1.363869054E0,-2.153472900E-1,4.785156250E-2,9.595214844E0,9.597750368E0
1.366188390E0,-2.010040283E-1,5.024719238E-2,9.590438843E0,9.592676613E0
1.368538243E0,-2.057800293E-1,4.785156250E-2,9.604797363E0,9.607120671E0
1.370857579E0,-2.081756592E-1,4.785156250E-2,9.597610474E0,9.599987171E0
1.373207433E0,-2.033843994E-1,5.024719238E-2,9.597610474E0,9.599896708E0
1.375526769E0,-1.866455078E-1,4.785156250E-2,9.616760254E0,9.618690353E0
1.377876622E0,-1.962127686E-1,5.503845215E-2,9.631118774E0,9.633274497E0
1.380226476E0,-1.818542480E-1,4.785156250E-2,9.643081665E0,9.644914968E0
1.382545812E0,-1.770629883E-1,5.743408203E-2,9.635894775E0,9.637692571E0
1.384895665E0,-1.890258789E-1,5.264282227E-2,9.652648926E0,9.654643097E0
1.387215001E0,-1.818542480E-1,5.981445312E-2,9.645462036E0,9.647361641E0
1.389564855E0,-1.651000977E-1,6.221008301E-2,9.657424927E0,9.659036409E0
1.391884191E0,-1.794586182E-1,6.700134277E-2,9.664611816E0,9.666510029E0
1.394234044E0,-1.746826172E-1,7.656860352E-2,9.659820557E0,9.661703264E0
1.396553380E0,-1.938171387E-1,6.700134277E-2,9.643081665E0,9.645261959E0
1.398903234E0,-2.010040283E-1,7.896423340E-2,9.635894775E0,9.638314484E0
1.401222570E0,-2.033843994E-1,6.939697266E-2,9.635894775E0,9.638290786E0
1.403572423E0,-1.962127686E-1,7.417297363E-2,9.635894775E0,9.638177691E0
1.405891759E0,-2.057800293E-1,7.177734375E-2,9.635894775E0,9.638359068E0
1.408241612E0,-1.962127686E-1,7.177734375E-2,9.640686035E0,9.642949687E0
1.410652501E0,-1.962127686E-1,7.177734375E-2,9.638290405E0,9.640554620E0
1.412910802E0,-2.033843994E-1,5.981445312E-2,9.662216187E0,9.664541614E0
1.415230138E0,-1.938171387E-1,5.503845215E-2,9.662216187E0,9.664316631E0
1.417579991E0,-1.962127686E-1,5.981445312E-2,9.631118774E0,9.633302968E0
1.419899327E0,-1.962127686E-1,5.264282227E-2,9.602401733E0,9.604550472E0
1.422249181E0,-1.722869873E-1,5.743408203E-2,9.623931885E0,9.625645246E0
1.424568517E0,-1.962127686E-1,6.700134277E-2,9.655044556E0,9.657270525E0
1.426918370E0,-1.914215088E-1,5.743408203E-2,9.628723145E0,9.630796969E0
1.429268224E0,-1.818542480E-1,5.503845215E-2,9.597610474E0,9.599490976E0
1.431587560E0,-1.866455078E-1,4.785156250E-2,9.602401733E0,9.604334718E0
1.433937413E0,-1.938171387E-1,5.024719238E-2,9.602401733E0,9.604488998E0
1.436256749E0,-2.010040283E-1,4.785156250E-2,9.595214844E0,9.597439257E0
1.438606603E0,-1.962127686E-1,4.785156250E-2,9.588043213E0,9.590170065E0
1.440925939E0,-2.057800293E-1,4.785156250E-2,9.588043213E0,9.590370579E0
1.443275792E0,-2.081756592E-1,4.785156250E-2,9.595214844E0,9.597592134E0
1.445595128E0,-2.081756592E-1,4.785156250E-2,9.609573364E0,9.611947103E0
1.447944982E0,-1.938171387E-1,5.024719238E-2,9.621536255E0,9.623619369E0
1.450264318E0,-2.081756592E-1,5.503845215E-2,9.623931885E0,9.626340492E0
1.452614171E0,-1.986083984E-1,6.221008301E-2,9.590438843E0,9.592696836E0
1.454933507E0,-1.914215088E-1,6.221008301E-2,9.578475952E0,9.580590475E0
1.457313878E0,-1.914215088E-1,5.503845215E-2,9.588043213E0,9.590111786E0
1.459633214E0,-2.010040283E-1,5.024719238E-2,9.585647583E0,9.587886471E0
1.461983068E0,-2.010040283E-1,5.024719238E-2,9.588043213E0,9.590281542E0
1.464302403E0,-1.962127686E-1,5.024719238E-2,9.592819214E0,9.594957254E0
1.466652257E0,-1.890258789E-1,5.024719238E-2,9.600006104E0,9.601998373E0
1.468971593E0,-1.866455078E-1,5.503845215E-2,9.595214844E0,9.597187800E0
1.471321446E0,-1.746826172E-1,6.939697266E-2,9.619140625E0,9.620976890E0
1.473640782E0,-1.603240967E-1,9.092712402E-2,9.633499146E0,9.635262183E0
1.475990636E0,-1.603240967E-1,9.809875488E-2,9.635894775E0,9.637727704E0
1.478309972E0,-1.603240967E-1,1.004943848E-1,9.640686035E0,9.642542723E0
1.480659825E0,-1.531372070E-1,9.809875488E-2,9.645462036E0,9.647176388E0
1.482979161E0,-1.531372070E-1,1.052856445E-1,9.652648926E0,9.654437703E0
1.485329015E0,-1.722869873E-1,9.332275391E-2,9.667007446E0,9.668992963E0
1.487648351E0,-1.698913574E-1,7.417297363E-2,9.669403076E0,9.671179895E0
1.489998204E0,-1.483612061E-1,8.613586426E-2,9.659820557E0,9.661343779E0
1.492317540E0,-1.555328369E-1,8.135986328E-2,9.650253296E0,9.651849489E0
1.494667394E0,-1.627044678E-1,7.896423340E-2,9.686141968E0,9.687830217E0
1.496986730E0,-1.698913574E-1,8.135986328E-2,9.700500488E0,9.702329216E0
1.499336583E0,-1.651000977E-1,9.809875488E-2,9.695724487E0,9.697626243E0
1.501686437E0,-1.674957275E-1,8.853149414E-2,9.674179077E0,9.676033974E0
1.504005773E0,-1.651000977E-1,8.853149414E-2,9.688537598E0,9.690348634E0
1.506355626E0,-1.651000977E-1,8.853149414E-2,9.690933228E0,9.692743816E0
1.508674962E0,-1.746826172E-1,8.135986328E-2,9.664611816E0,9.666532729E0
1.511024816E0,-1.746826172E-1,6.221008301E-2,9.674179077E0,9.675956021E0
1.513344152E0,-1.770629883E-1,5.503845215E-2,9.667007446E0,9.668785524E0
1.515694005E0,-1.842498779E-1,5.264282227E-2,9.657424927E0,9.659325831E0
1.518013341E0,-1.914215088E-1,5.264282227E-2,9.650253296E0,9.652295175E0
1.520363195E0,-1.986083984E-1,4.785156250E-2,9.640686035E0,9.642850320E0
1.522682530E0,-2.081756592E-1,4.785156250E-2,9.626327515E0,9.628697124E0
1.525032384E0,-2.057800293E-1,5.024719238E-2,9.621536255E0,9.623867731E0
1.527351720E0,-1.818542480E-1,5.503845215E-2,9.628723145E0,9.630597572E0
1.529701573E0,-1.914215088E-1,6.700134277E-2,9.626327515E0,9.628463678E0
1.532020909E0,-1.986083984E-1,6.460571289E-2,9.643081665E0,9.645343083E0
1.534370763E0,-2.129669189E-1,5.503845215E-2,9.604797363E0,9.607315782E0
1.536690099E0,-2.057800293E-1,5.264282227E-2,9.583251953E0,9.585605598E0
1.539039952E0,-2.249298096E-1,5.503845215E-2,9.597610474E0,9.600403609E0
1.541359288E0,-2.033843994E-1,5.743408203E-2,9.592819214E0,9.595146917E0
1.543709142E0,-1.794586182E-1,6.460571289E-2,9.602401733E0,9.604295828E0
1.546028478E0,-1.962127686E-1,7.417297363E-2,9.616760254E0,9.619047711E0
1.548378331E0,-1.794586182E-1,5.981445312E-2,9.611968994E0,9.613830200E0
1.550697667E0,-1.794586182E-1,7.417297363E-2,9.621536255E0,9.623495567E0
1.553047521E0,-1.842498779E-1,7.177734375E-2,9.645462036E0,9.647488683E0
1.555366857E0,-1.722869873E-1,7.417297363E-2,9.650253296E0,9.652076104E0
1.557716710E0,-1.794586182E-1,6.221008301E-2,9.645462036E0,9.647331931E0
1.560036046E0,-1.962127686E-1,5.981445312E-2,9.640686035E0,9.642868061E0
1.562385900E0,-1.842498779E-1,5.981445312E-2,9.638290405E0,9.640236912E0
1.564705236E0,-1.938171387E-1,6.700134277E-2,9.635894775E0,9.638076695E0
1.567055089E0,-1.938171387E-1,6.939697266E-2,9.626327515E0,9.628528571E0
1.569404943E0,-1.866455078E-1,6.939697266E-2,9.640686035E0,9.642742334E0
1.571724278E0,-1.890258789E-1,6.460571289E-2,9.638290405E0,9.640360295E0
1.574074132E0,-1.938171387E-1,6.700134277E-2,9.640686035E0,9.642866871E0
1.576393468E0,-1.746826172E-1,5.503845215E-2,9.652648926E0,9.654386285E0
1.578743321E0,-1.770629883E-1,5.981445312E-2,9.676574707E0,9.678379365E0
1.581062657E0,-1.962127686E-1,5.503845215E-2,9.662216187E0,9.664364972E0
1.583412511E0,-1.866455078E-1,5.264282227E-2,9.643081665E0,9.645031457E0
1.585731847E0,-1.914215088E-1,5.743408203E-2,9.645462036E0,9.647532263E0
1.588081700E0,-2.010040283E-1,7.656860352E-2,9.623931885E0,9.626335247E0
1.590401036E0,-1.866455078E-1,7.896423340E-2,9.626327515E0,9.628460589E0
1.592750890E0,-1.914215088E-1,7.177734375E-2,9.619140625E0,9.621312829E0
1.595070226E0,-1.986083984E-1,7.896423340E-2,9.602401733E0,9.604780044E0
1.597420079E0,-1.938171387E-1,8.613586426E-2,9.616760254E0,9.619098827E0
1.599739415E0,-1.890258789E-1,8.135986328E-2,9.626327515E0,9.628526971E0
1.602089269E0,-1.746826172E-1,7.656860352E-2,9.631118774E0,9.633007091E0
1.604408605E0,-1.818542480E-1,7.417297363E-2,9.623931885E0,9.625935670E0
1.606758458E0,-1.746826172E-1,7.656860352E-2,9.609573364E0,9.611465914E0
1.609077794E0,-1.794586182E-1,7.177734375E-2,9.628723145E0,9.630662842E0
1.611427648E0,-1.890258789E-1,5.981445312E-2,9.631118774E0,9.633159264E0
1.613777501E0,-1.794586182E-1,6.700134277E-2,9.631118774E0,9.633023587E0
1.616096837E0,-1.746826172E-1,8.613586426E-2,9.623931885E0,9.625902468E0
1.618446691E0,-1.627044678E-1,8.613586426E-2,9.638290405E0,9.640048447E0
1.620766027E0,-1.746826172E-1,8.135986328E-2,9.647857666E0,9.649781914E0
1.623115880E0,-1.722869873E-1,7.656860352E-2,9.626327515E0,9.628173605E0
1.625435216E0,-1.698913574E-1,5.503845215E-2,9.626327515E0,9.627983887E0
1.627785070E0,-1.890258789E-1,5.981445312E-2,9.638290405E0,9.640329377E0
1.630104405E0,-1.818542480E-1,7.417297363E-2,9.638290405E0,9.640291206E0
1.632454259E0,-1.866455078E-1,6.221008301E-2,9.638290405E0,9.640298158E0
1.634773595E0,-1.962127686E-1,5.024719238E-2,9.628723145E0,9.630853214E0
1.637123448E0,-1.986083984E-1,5.503845215E-2,9.628723145E0,9.630928508E0
1.639442784E0,-2.153472900E-1,5.024719238E-2,9.616760254E0,9.619302314E0
1.641792638E0,-2.153472900E-1,4.785156250E-2,9.626327515E0,9.628854846E0
1.644111974E0,-2.081756592E-1,5.743408203E-2,9.623931885E0,9.626354487E0
1.646461827E0,-2.105712891E-1,4.785156250E-2,9.590438843E0,9.592869604E0
1.648781163E0,-2.129669189E-1,4.785156250E-2,9.595214844E0,9.597697254E0
1.651131017E0,-2.081756592E-1,5.264282227E-2,9.621536255E0,9.623932059E0
1.653450353E0,-2.057800293E-1,5.743408203E-2,9.604797363E0,9.607173179E0
1.655800206E0,-1.962127686E-1,6.460571289E-2,9.597610474E0,9.599833340E0
1.658119542E0,-1.938171387E-1,5.503845215E-2,9.609573364E0,9.611685313E0
1.660469396E0,-1.914215088E-1,6.700134277E-2,9.628723145E0,9.630858776E0
1.662819249E0,-1.842498779E-1,6.939697266E-2,9.626327515E0,9.628340738E0
1.665138585E0,-1.794586182E-1,5.981445312E-2,9.609573364E0,9.611435034E0
1.667488439E0,-1.794586182E-1,7.177734375E-2,9.623931885E0,9.625872548E0
1.669807775E0,-1.746826172E-1,7.896423340E-2,9.626327515E0,9.628236120E0
1.672157628E0,-1.698913574E-1,8.375549316E-2,9.626327515E0,9.628190872E0
1.674476964E0,-1.651000977E-1,8.135986328E-2,9.638290405E0,9.640047687E0
1.676826818E0,-1.674957275E-1,7.656860352E-2,9.662216187E0,9.663971192E0
1.679146153E0,-1.603240967E-1,8.613586426E-2,9.659820557E0,9.661534888E0
1.681496007E0,-1.627044678E-1,8.375549316E-2,9.662216187E0,9.663948953E0
1.683815343E0,-1.579284668E-1,9.092712402E-2,9.667007446E0,9.668724947E0
1.686165196E0,-1.603240967E-1,8.613586426E-2,9.676574707E0,9.678286071E0
1.688484532E0,-1.651000977E-1,8.135986328E-2,9.667007446E0,9.668759509E0
1.690834386E0,-1.722869873E-1,7.177734375E-2,9.645462036E0,9.647267628E0
1.693153722E0,-1.914215088E-1,6.700134277E-2,9.645462036E0,9.647593962E0
1.695503575E0,-1.818542480E-1,5.264282227E-2,9.647857666E0,9.649715010E0
1.697822911E0,-1.770629883E-1,5.264282227E-2,9.645462036E0,9.647230715E0
1.700172765E0,-1.770629883E-1,5.981445312E-2,9.621536255E0,9.623351234E0
1.702492101E0,-1.890258789E-1,6.700134277E-2,9.614364624E0,9.616456056E0
1.704841954E0,-1.818542480E-1,6.700134277E-2,9.623931885E0,9.625883080E0
1.707161290E0,-1.866455078E-1,6.460571289E-2,9.640686035E0,9.642709042E0
1.709511144E0,-1.986083984E-1,6.221008301E-2,9.643081665E0,9.645327334E0
1.711830480E0,-1.914215088E-1,5.981445312E-2,9.635894775E0,9.637981536E0
1.714180333E0,-1.986083984E-1,5.743408203E-2,9.609573364E0,9.611797138E0
1.716530187E0,-2.105712891E-1,7.417297363E-2,9.626327515E0,9.628915999E0
1.718849523E0,-1.986083984E-1,6.460571289E-2,9.623931885E0,9.626197802E0
1.721199376E0,-2.033843994E-1,5.264282227E-2,9.592819214E0,9.595119434E0
1.723518712E0,-1.986083984E-1,6.221008301E-2,9.614364624E0,9.616616999E0
1.725868566E0,-2.129669189E-1,6.700134277E-2,9.616760254E0,9.619351427E0
1.728187902E0,-1.842498779E-1,7.417297363E-2,9.628723145E0,9.630771467E0
1.730537755E0,-1.698913574E-1,7.656860352E-2,9.595214844E0,9.597024212E0
1.732857091E0,-1.746826172E-1,7.417297363E-2,9.628723145E0,9.630593182E0
1.735206945E0,-1.698913574E-1,8.135986328E-2,9.626327515E0,9.628170331E0
1.737526280E0,-1.698913574E-1,8.613586426E-2,9.640686035E0,9.642567588E0
1.739876134E0,-1.746826172E-1,6.939697266E-2,9.638290405E0,9.640123023E0
1.742195470E0,-1.722869873E-1,6.700134277E-2,9.638290405E0,9.640062963E0
1.744575841E0,-1.651000977E-1,6.939697266E-2,9.640686035E0,9.642349362E0
1.746895177E0,-1.651000977E-1,6.700134277E-2,9.640686035E0,9.642332418E0
1.749245030E0,-1.483612061E-1,8.853149414E-2,9.621536255E0,9.623087279E0
1.751564366E0,-1.579284668E-1,7.896423340E-2,9.645462036E0,9.647078036E0
1.753914220E0,-1.746826172E-1,7.656860352E-2,9.655044556E0,9.656928194E0
1.756233556E0,-1.746826172E-1,7.656860352E-2,9.640686035E0,9.642572478E0
1.758583409E0,-1.651000977E-1,8.853149414E-2,9.650253296E0,9.652071516E0
1.760902745E0,-1.651000977E-1,8.853149414E-2,9.669403076E0,9.671217696E0
1.763252599E0,-1.722869873E-1,6.700134277E-2,9.674179077E0,9.675945060E0
1.765571935E0,-1.722869873E-1,7.417297363E-2,9.643081665E0,9.644905828E0
1.767921788E0,-1.627044678E-1,6.939697266E-2,9.640686035E0,9.642308640E0
1.770271642E0,-1.818542480E-1,6.460571289E-2,9.669403076E0,9.671328798E0
1.772590978E0,-1.866455078E-1,7.177734375E-2,9.655044556E0,9.657115196E0
1.774940831E0,-1.866455078E-1,6.939697266E-2,9.659820557E0,9.661872783E0
1.777260167E0,-1.698913574E-1,8.375549316E-2,9.647857666E0,9.649716866E0
1.779610021E0,-1.722869873E-1,9.571838379E-2,9.647857666E0,9.649870588E0
1.781929357E0,-1.603240967E-1,8.853149414E-2,9.635894775E0,9.637635071E0
1.784279210E0,-1.770629883E-1,6.939697266E-2,9.640686035E0,9.642561613E0
1.786598546E0,-1.938171387E-1,6.221008301E-2,9.623931885E0,9.626084360E0
1.788948400E0,-1.866455078E-1,9.092712402E-2,9.626327515E0,9.628566129E0
1.791267736E0,-1.842498779E-1,8.375549316E-2,9.638290405E0,9.640415185E0
1.793617589E0,-1.938171387E-1,6.460571289E-2,9.614364624E0,9.616535036E0
1.795936925E0,-1.962127686E-1,5.981445312E-2,9.621536255E0,9.623722623E0
1.798286778E0,-1.914215088E-1,6.700134277E-2,9.626327515E0,9.628463678E0
1.800606114E0,-2.081756592E-1,7.177734375E-2,9.616760254E0,9.619280996E0
1.802955968E0,-1.890258789E-1,5.743408203E-2,9.595214844E0,9.597248426E0
1.805275304E0,-1.866455078E-1,5.024719238E-2,9.633499146E0,9.635438086E0
1.807625157E0,-1.938171387E-1,5.024719238E-2,9.638290405E0,9.640369900E0
1.809944493E0,-1.890258789E-1,5.024719238E-2,9.621536255E0,9.623524067E0
1.812294347E0,-1.914215088E-1,6.221008301E-2,9.631118774E0,9.633221742E0
1.814613683E0,-1.890258789E-1,5.503845215E-2,9.631118774E0,9.633130792E0
1.816963536E0,-1.962127686E-1,5.264282227E-2,9.604797363E0,9.606945566E0
1.819313390E0,-1.842498779E-1,5.264282227E-2,9.619140625E0,9.621049093E0
1.821632726E0,-1.842498779E-1,7.417297363E-2,9.638290405E0,9.640336695E0
1.823982579E0,-1.818542480E-1,5.264282227E-2,9.664611816E0,9.666465941E0
1.826301915E0,-1.722869873E-1,6.221008301E-2,9.667007446E0,9.668742724E0
1.828651769E0,-1.722869873E-1,6.460571289E-2,9.635894775E0,9.637651417E0
1.830971105E0,-1.842498779E-1,7.417297363E-2,9.640686035E0,9.642731816E0
1.833320958E0,-1.890258789E-1,7.656860352E-2,9.640686035E0,9.642842981E0
1.835640294E0,-1.770629883E-1,7.896423340E-2,9.650253296E0,9.652200543E0
1.837990148E0,-1.842498779E-1,5.981445312E-2,9.635894775E0,9.637841766E0
1.840309484E0,-1.914215088E-1,6.700134277E-2,9.619140625E0,9.621278384E0
1.842659337E0,-1.986083984E-1,6.939697266E-2,9.614364624E0,9.616666177E0
1.844978673E0,-2.057800293E-1,6.221008301E-2,9.616760254E0,9.619162817E0
1.847328527E0,-2.010040283E-1,7.656860352E-2,9.619140625E0,9.621545184E0
1.849647862E0,-1.818542480E-1,8.853149414E-2,9.621536255E0,9.623661917E0
1.851997716E0,-1.914215088E-1,6.460571289E-2,9.621536255E0,9.623657101E0
1.854317052E0,-1.890258789E-1,5.981445312E-2,9.611968994E0,9.614013548E0
1.856666905E0,-1.890258789E-1,5.024719238E-2,9.611968994E0,9.613958784E0
1.859016759E0,-1.842498779E-1,5.264282227E-2,9.631118774E0,9.633024869E0
1.861336095E0,-1.914215088E-1,5.024719238E-2,9.614364624E0,9.616401307E0
1.863685948E0,-1.842498779E-1,5.024719238E-2,9.609573364E0,9.611470909E0
1.866005284E0,-1.866455078E-1,4.785156250E-2,9.631118774E0,9.633045996E0
1.868355138E0,-1.914215088E-1,5.024719238E-2,9.640686035E0,9.642717159E0
1.870674474E0,-1.914215088E-1,5.264282227E-2,9.635894775E0,9.637939696E0
1.873024327E0,-1.914215088E-1,4.785156250E-2,9.619140625E0,9.621164084E0
1.875343663E0,-1.938171387E-1,5.264282227E-2,9.623931885E0,9.626027284E0
1.877693517E0,-2.033843994E-1,5.264282227E-2,9.619140625E0,9.621434552E0
1.880012853E0,-2.081756592E-1,5.981445312E-2,9.619140625E0,9.621578937E0
1.882362706E0,-2.081756592E-1,6.221008301E-2,9.623931885E0,9.626384167E0
1.884682042E0,-2.177429199E-1,5.981445312E-2,9.628723145E0,9.631370574E0
1.887031896E0,-2.105712891E-1,7.177734375E-2,9.633499146E0,9.636067561E0
1.889351232E0,-2.081756592E-1,6.221008301E-2,9.621536255E0,9.623989147E0
1.891701085E0,-2.129669189E-1,6.700134277E-2,9.621536255E0,9.624126142E0
1.894050939E0,-2.105712891E-1,6.460571289E-2,9.638290405E0,9.640806818E0
1.896370275E0,-1.962127686E-1,5.981445312E-2,9.623931885E0,9.626117709E0
1.898720128E0,-1.986083984E-1,5.743408203E-2,9.619140625E0,9.621362187E0
1.901039464E0,-1.914215088E-1,5.503845215E-2,9.611968994E0,9.614032420E0
1.903389318E0,-1.938171387E-1,5.024719238E-2,9.628723145E0,9.630804705E0
1.905708653E0,-2.010040283E-1,6.221008301E-2,9.628723145E0,9.631021862E0
1.908058507E0,-2.033843994E-1,6.221008301E-2,9.602401733E0,9.604756861E0
1.910377843E0,-1.818542480E-1,5.503845215E-2,9.614364624E0,9.616241850E0
1.912727696E0,-1.914215088E-1,5.503845215E-2,9.623931885E0,9.625992746E0
1.915047032E0,-1.890258789E-1,5.743408203E-2,9.647857666E0,9.649880155E0
1.917396886E0,-1.938171387E-1,5.264282227E-2,9.619140625E0,9.621237068E0
1.919716222E0,-1.914215088E-1,5.503845215E-2,9.619140625E0,9.621202513E0
1.922066075E0,-2.033843994E-1,6.700134277E-2,9.628723145E0,9.631103976E0
1.924385411E0,-1.818542480E-1,5.743408203E-2,9.628723145E0,9.630611561E0
1.926735265E0,-1.794586182E-1,5.981445312E-2,9.631118774E0,9.632976280E0
1.929054601E0,-1.818542480E-1,5.981445312E-2,9.640686035E0,9.642586581E0
1.931404454E0,-1.842498779E-1,5.981445312E-2,9.667007446E0,9.668948172E0
1.933754308E0,-1.770629883E-1,5.503845215E-2,9.664611816E0,9.666390334E0
1.936073644E0,-1.818542480E-1,5.503845215E-2,9.647857666E0,9.649728377E0
1.938423497E0,-1.818542480E-1,5.024719238E-2,9.619140625E0,9.620990703E0
1.940742833E0,-1.938171387E-1,5.024719238E-2,9.614364624E0,9.616449292E0
1.943092687E0,-1.986083984E-1,4.785156250E-2,9.609573364E0,9.611744655E0
1.945412023E0,-2.105712891E-1,4.785156250E-2,9.592819214E0,9.595249372E0
1.947761876E0,-2.081756592E-1,4.785156250E-2,9.592819214E0,9.595197098E0
1.950081212E0,-2.105712891E-1,4.785156250E-2,9.600006104E0,9.602434443E0
1.952431066E0,-2.153472900E-1,5.024719238E-2,9.604797363E0,9.607342589E0
1.954750402E0,-2.105712891E-1,4.785156250E-2,9.576080322E0,9.578514727E0
1.957100255E0,-2.225341797E-1,4.785156250E-2,9.578475952E0,9.581180136E0
1.959419591E0,-2.105712891E-1,4.785156250E-2,9.609573364E0,9.611999286E0
1.961769445E0,-2.033843994E-1,5.264282227E-2,9.619140625E0,9.621434552E0
1.964088780E0,-1.890258789E-1,6.460571289E-2,9.607177734E0,9.609254326E0
1.966438634E0,-1.914215088E-1,6.221008301E-2,9.590438843E0,9.592550729E0
1.968757970E0,-1.938171387E-1,5.981445312E-2,9.607177734E0,9.609318752E0
1.971107823E0,-1.914215088E-1,6.460571289E-2,9.609573364E0,9.611696850E0
1.973427159E0,-1.818542480E-1,5.503845215E-2,9.611968994E0,9.613846688E0
1.975777013E0,-1.938171387E-1,6.460571289E-2,9.600006104E0,9.602179761E0
1.978096349E0,-1.794586182E-1,7.417297363E-2,9.619140625E0,9.621100425E0
1.980446202E0,-1.746826172E-1,8.853149414E-2,9.645462036E0,9.647449908E0
1.982765538E0,-1.627044678E-1,7.896423340E-2,9.628723145E0,9.630421460E0
1.985115392E0,-1.651000977E-1,8.135986328E-2,9.638290405E0,9.640047687E0
1.987465245E0,-1.818542480E-1,6.939697266E-2,9.655044556E0,9.657006383E0
1.989784581E0,-1.914215088E-1,6.700134277E-2,9.659820557E0,9.661949315E0
1.992134435E0,-1.866455078E-1,6.221008301E-2,9.650253296E0,9.652258560E0
1.994453771E0,-1.938171387E-1,5.981445312E-2,9.645462036E0,9.647594557E0
1.996803624E0,-1.746826172E-1,8.135986328E-2,9.657424927E0,9.659347269E0
1.999122960E0,-1.746826172E-1,6.221008301E-2,9.655044556E0,9.656825021E0
2.001472814E0,-1.698913574E-1,5.981445312E-2,9.664611816E0,9.666290002E0
2.003792150E0,-1.746826172E-1,5.743408203E-2,9.655044556E0,9.656795434E0
2.006142003E0,-1.770629883E-1,5.024719238E-2,9.662216187E0,9.663969046E0
2.008461339E0,-1.890258789E-1,5.264282227E-2,9.652648926E0,9.654643097E0
2.010811193E0,-1.746826172E-1,5.264282227E-2,9.638290405E0,9.640016972E0
2.013130528E0,-1.674957275E-1,6.221008301E-2,9.652648926E0,9.654302471E0
2.015541417E0,-1.866455078E-1,7.656860352E-2,9.690933228E0,9.693032865E0
2.017799718E0,-1.794586182E-1,5.981445312E-2,9.669403076E0,9.671253229E0
2.020149571E0,-1.722869873E-1,5.503845215E-2,9.643081665E0,9.644777656E0
2.022468907E0,-1.866455078E-1,7.656860352E-2,9.652648926E0,9.654756889E0
2.024818761E0,-2.057800293E-1,6.700134277E-2,9.626327515E0,9.628759838E0
2.027138097E0,-1.986083984E-1,5.981445312E-2,9.616760254E0,9.618996873E0
2.029518468E0,-1.962127686E-1,6.939697266E-2,9.623931885E0,9.626182022E0
2.031837804E0,-1.938171387E-1,5.264282227E-2,9.592819214E0,9.594921408E0
2.034187657E0,-1.890258789E-1,5.503845215E-2,9.609573364E0,9.611589892E0
2.036506993E0,-1.818542480E-1,7.417297363E-2,9.621536255E0,9.623540539E0
2.038856847E0,-1.746826172E-1,8.375549316E-2,9.650253296E0,9.652197557E0
2.041206700E0,-1.818542480E-1,7.896423340E-2,9.635894775E0,9.637934138E0
2.043526036E0,-1.722869873E-1,7.896423340E-2,9.616760254E0,9.618627550E0
2.045875890E0,-1.603240967E-1,7.656860352E-2,9.614364624E0,9.616006120E0
2.048195226E0,-1.914215088E-1,7.656860352E-2,9.655044556E0,9.657245483E0
2.050545079E0,-1.746826172E-1,6.700134277E-2,9.662216187E0,9.664027361E0
2.052864415E0,-1.770629883E-1,6.460571289E-2,9.635894775E0,9.637737977E0
2.055214269E0,-1.674957275E-1,6.221008301E-2,9.588043213E0,9.589707898E0
2.057533605E0,-1.674957275E-1,7.177734375E-2,9.590438843E0,9.592169932E0
2.059883458E0,-1.914215088E-1,7.417297363E-2,9.621536255E0,9.623726083E0
2.062202794E0,-1.746826172E-1,8.135986328E-2,9.652648926E0,9.654572219E0
2.064552648E0,-1.794586182E-1,6.460571289E-2,9.616760254E0,9.618651521E0
2.066871984E0,-1.794586182E-1,7.656860352E-2,9.633499146E0,9.635474764E0
2.069221837E0,-1.722869873E-1,7.896423340E-2,9.640686035E0,9.642548698E0
2.071541173E0,-1.746826172E-1,7.417297363E-2,9.640686035E0,9.642553753E0
2.073891027E0,-1.842498779E-1,7.896423340E-2,9.623931885E0,9.626019338E0
2.076210362E0,-1.818542480E-1,6.700134277E-2,9.628723145E0,9.630673369E0
2.078560216E0,-1.890258789E-1,6.221008301E-2,9.643081665E0,9.645134777E0
2.080879552E0,-2.033843994E-1,5.981445312E-2,9.643081665E0,9.645411706E0
2.083229405E0,-2.057800293E-1,7.177734375E-2,9.628723145E0,9.631189272E0
2.085579259E0,-2.033843994E-1,6.939697266E-2,9.600006104E0,9.602411069E0
2.087898595E0,-2.033843994E-1,5.743408203E-2,9.650253296E0,9.652567149E0
2.090248448E0,-2.010040283E-1,6.939697266E-2,9.628723145E0,9.631070966E0
2.092567784E0,-1.986083984E-1,6.939697266E-2,9.626327515E0,9.628626208E0
2.094917638E0,-1.986083984E-1,8.135986328E-2,9.657424927E0,9.659809571E0
2.097236974E0,-1.770629883E-1,5.743408203E-2,9.657424927E0,9.659218715E0
2.099586827E0,-1.722869873E-1,6.221008301E-2,9.640686035E0,9.642426050E0
2.101906163E0,-1.794586182E-1,5.743408203E-2,9.645462036E0,9.647302315E0
2.104256017E0,-1.866455078E-1,5.264282227E-2,9.664611816E0,9.666557266E0
2.106575353E0,-1.818542480E-1,4.785156250E-2,9.647857666E0,9.649690062E0
2.108925206E0,-1.794586182E-1,5.503845215E-2,9.628723145E0,9.630552633E0
2.111244542E0,-1.818542480E-1,5.503845215E-2,9.614364624E0,9.616241850E0
2.113594396E0,-1.986083984E-1,4.785156250E-2,9.600006104E0,9.602179558E0
2.115913732E0,-2.033843994E-1,5.264282227E-2,9.614364624E0,9.616659691E0
2.118263585E0,-1.818542480E-1,6.700134277E-2,9.628723145E0,9.630673369E0
2.120582921E0,-1.938171387E-1,5.743408203E-2,9.600006104E0,9.602134187E0
2.122932775E0,-1.914215088E-1,5.503845215E-2,9.616760254E0,9.618822652E0
2.125282628E0,-1.890258789E-1,5.743408203E-2,9.631118774E0,9.633144777E0
2.127601964E0,-1.914215088E-1,5.743408203E-2,9.602401733E0,9.604481241E0
2.129951818E0,-1.938171387E-1,5.981445312E-2,9.619140625E0,9.621278980E0
2.132271153E0,-1.962127686E-1,6.460571289E-2,9.614364624E0,9.616583617E0
2.134621007E0,-1.842498779E-1,6.460571289E-2,9.628723145E0,9.630702535E0
2.136940343E0,-1.746826172E-1,7.177734375E-2,9.611968994E0,9.613824106E0
2.139290196E0,-1.866455078E-1,7.177734375E-2,9.621536255E0,9.623614105E0
2.141609532E0,-1.890258789E-1,5.981445312E-2,9.650253296E0,9.652289740E0
2.143959386E0,-1.866455078E-1,6.221008301E-2,9.616760254E0,9.618772501E0
2.146278722E0,-1.962127686E-1,5.264282227E-2,9.592819214E0,9.594970098E0
2.148628575E0,-1.962127686E-1,5.503845215E-2,9.607177734E0,9.609338827E0
2.150947911E0,-1.986083984E-1,5.024719238E-2,9.619140625E0,9.621321969E0
2.153297765E0,-1.842498779E-1,5.981445312E-2,9.621536255E0,9.623486151E0
2.155617101E0,-1.962127686E-1,5.503845215E-2,9.619140625E0,9.621299031E0
2.157966954E0,-1.890258789E-1,4.785156250E-2,9.611968994E0,9.613946562E0
2.160286290E0,-1.842498779E-1,5.024719238E-2,9.623931885E0,9.625826599E0
2.162636144E0,-1.962127686E-1,5.981445312E-2,9.635894775E0,9.638077886E0
2.164955480E0,-1.938171387E-1,5.743408203E-2,9.611968994E0,9.614094430E0
2.167305333E0,-1.986083984E-1,5.264282227E-2,9.600006104E0,9.602204630E0
2.169624669E0,-1.866455078E-1,5.981445312E-2,9.626327515E0,9.628322582E0
2.171974523E0,-1.866455078E-1,6.460571289E-2,9.626327515E0,9.628353539E0
2.174293859E0,-1.818542480E-1,6.221008301E-2,9.628723145E0,9.630641228E0
2.176643712E0,-1.890258789E-1,6.221008301E-2,9.619140625E0,9.621198846E0
2.178963048E0,-1.794586182E-1,5.743408203E-2,9.602401733E0,9.604250263E0
2.181312902E0,-1.842498779E-1,7.177734375E-2,9.616760254E0,9.618792948E0
2.183662755E0,-1.890258789E-1,6.939697266E-2,9.645462036E0,9.647563662E0
2.185982091E0,-1.962127686E-1,6.460571289E-2,9.638290405E0,9.640503892E0
2.188331945E0,-1.938171387E-1,7.417297363E-2,9.643081665E0,9.645314443E0
2.190651280E0,-1.890258789E-1,8.613586426E-2,9.645462036E0,9.647698589E0
2.193001134E0,-1.794586182E-1,8.135986328E-2,9.643081665E0,9.645094547E0
2.195320470E0,-1.866455078E-1,6.939697266E-2,9.643081665E0,9.645137453E0
2.197670323E0,-1.842498779E-1,7.656860352E-2,9.652648926E0,9.654710874E0
2.199989659E0,-1.818542480E-1,7.656860352E-2,9.652648926E0,9.654665453E0
2.202339513E0,-1.722869873E-1,6.460571289E-2,9.643081665E0,9.644836997E0
2.204658849E0,-1.627044678E-1,7.896423340E-2,9.645462036E0,9.647157404E0
2.207008702E0,-1.818542480E-1,6.700134277E-2,9.647857666E0,9.649804023E0
2.209328038E0,-1.770629883E-1,6.221008301E-2,9.645462036E0,9.647287665E0
2.211677892E0,-1.674957275E-1,6.700134277E-2,9.645462036E0,9.647148900E0
2.213997228E0,-1.698913574E-1,6.460571289E-2,9.650253296E0,9.651964859E0
2.216408116E0,-1.842498779E-1,6.460571289E-2,9.647857666E0,9.649833131E0
2.218666417E0,-1.842498779E-1,6.460571289E-2,9.640686035E0,9.642662970E0
2.221016271E0,-1.722869873E-1,8.135986328E-2,9.638290405E0,9.640173451E0
2.223335607E0,-1.555328369E-1,9.809875488E-2,9.626327515E0,9.628083675E0
2.225685460E0,-1.651000977E-1,7.656860352E-2,9.667007446E0,9.668720379E0
2.228004796E0,-1.794586182E-1,7.177734375E-2,9.638290405E0,9.640228178E0
2.230354650E0,-1.722869873E-1,6.221008301E-2,9.607177734E0,9.608923817E0
2.232704503E0,-1.770629883E-1,5.981445312E-2,9.638290405E0,9.640102230E0
2.235023839E0,-2.010040283E-1,6.939697266E-2,9.628723145E0,9.631070966E0
2.237373693E0,-1.818542480E-1,6.221008301E-2,9.616760254E0,9.618680723E0
2.239693028E0,-1.770629883E-1,5.743408203E-2,9.623931885E0,9.625731915E0
2.242042882E0,-2.010040283E-1,6.939697266E-2,9.640686035E0,9.643030944E0
2.244362218E0,-1.938171387E-1,6.939697266E-2,9.621536255E0,9.623738407E0
2.246712071E0,-1.866455078E-1,7.896423340E-2,9.626327515E0,9.628460589E0
2.249031407E0,-1.914215088E-1,7.417297363E-2,9.616760254E0,9.618951170E0
2.251381261E0,-1.842498779E-1,6.939697266E-2,9.647857666E0,9.649866398E0
2.253700597E0,-1.794586182E-1,6.939697266E-2,9.659820557E0,9.661736620E0
2.256050450E0,-1.890258789E-1,6.221008301E-2,9.643081665E0,9.645134777E0
2.258369786E0,-1.818542480E-1,6.460571289E-2,9.628723145E0,9.630657000E0
2.260719640E0,-1.746826172E-1,8.375549316E-2,9.635894775E0,9.637841933E0
2.263038976E0,-1.890258789E-1,7.177734375E-2,9.643081665E0,9.645201230E0
2.265388829E0,-1.842498779E-1,7.177734375E-2,9.635894775E0,9.637923434E0
2.267738683E0,-1.794586182E-1,7.417297363E-2,9.631118774E0,9.633076138E0
2.270058019E0,-1.794586182E-1,6.700134277E-2,9.640686035E0,9.642588958E0
2.272407872E0,-1.842498779E-1,7.417297363E-2,9.638290405E0,9.640336695E0
2.274727208E0,-1.794586182E-1,7.656860352E-2,9.643081665E0,9.645055321E0
2.277046544E0,-1.746826172E-1,8.135986328E-2,9.631118774E0,9.633046366E0
2.279396398E0,-1.770629883E-1,7.417297363E-2,9.631118774E0,9.633031806E0
2.281746251E0,-1.698913574E-1,7.417297363E-2,9.616760254E0,9.618546797E0
2.284065587E0,-1.770629883E-1,8.853149414E-2,9.635894775E0,9.637928058E0
2.286415441E0,-1.770629883E-1,7.417297363E-2,9.635894775E0,9.637806859E0
2.288734777E0,-1.698913574E-1,7.417297363E-2,9.631118774E0,9.632902654E0
2.291084630E0,-1.746826172E-1,7.417297363E-2,9.638290405E0,9.640158587E0
2.293403966E0,-1.794586182E-1,7.417297363E-2,9.650253296E0,9.652206779E0
2.295753820E0,-1.651000977E-1,6.460571289E-2,9.638290405E0,9.639920844E0
2.298073155E0,-1.794586182E-1,6.221008301E-2,9.640686035E0,9.642556856E0
2.300423009E0,-1.794586182E-1,7.177734375E-2,9.647857666E0,9.649793517E0
2.302742345E0,-1.818542480E-1,6.221008301E-2,9.645462036E0,9.647376791E0
2.305092198E0,-1.866455078E-1,6.700134277E-2,9.635894775E0,9.637935144E0
2.307411534E0,-1.770629883E-1,7.417297363E-2,9.633499146E0,9.635411705E0
2.309761388E0,-1.866455078E-1,7.656860352E-2,9.635894775E0,9.638006403E0
2.312080724E0,-1.842498779E-1,5.981445312E-2,9.647857666E0,9.649802243E0
2.314430577E0,-1.866455078E-1,5.264282227E-2,9.652648926E0,9.654596786E0
2.316810948E0,-1.746826172E-1,5.743408203E-2,9.643081665E0,9.644834715E0
2.319130284E0,-1.818542480E-1,5.024719238E-2,9.650253296E0,9.652097411E0
2.321480138E0,-1.914215088E-1,5.981445312E-2,9.638290405E0,9.640376647E0
2.323799474E0,-1.722869873E-1,6.939697266E-2,9.635894775E0,9.637684726E0
2.326149327E0,-1.866455078E-1,6.700134277E-2,9.623931885E0,9.625974790E0
2.328468663E0,-1.842498779E-1,6.939697266E-2,9.635894775E0,9.637906001E0
2.330818517E0,-1.651000977E-1,6.460571289E-2,9.655044556E0,9.656672166E0
2.333137853E0,-1.842498779E-1,6.700134277E-2,9.640686035E0,9.642679318E0
2.335487706E0,-1.818542480E-1,5.503845215E-2,9.633499146E0,9.635372644E0
2.337807042E0,-1.866455078E-1,6.939697266E-2,9.647857666E0,9.649912436E0
2.340156896E0,-1.866455078E-1,6.939697266E-2,9.633499146E0,9.635556978E0
2.342476232E0,-1.938171387E-1,6.700134277E-2,9.655044556E0,9.657222149E0
2.344826085E0,-1.818542480E-1,6.939697266E-2,9.628723145E0,9.630690334E0
2.347145421E0,-1.914215088E-1,6.700134277E-2,9.614364624E0,9.616503444E0
2.349495275E0,-1.842498779E-1,5.981445312E-2,9.609573364E0,9.611525687E0
2.351814611E0,-1.674957275E-1,5.743408203E-2,9.626327515E0,9.627955905E0
2.354164464E0,-1.722869873E-1,6.221008301E-2,9.633499146E0,9.635240458E0
2.356483800E0,-1.698913574E-1,6.939697266E-2,9.628723145E0,9.630471868E0
2.358833653E0,-1.770629883E-1,5.024719238E-2,9.626327515E0,9.628086908E0
2.361152989E0,-1.818542480E-1,5.743408203E-2,9.626327515E0,9.628216401E0
2.363502843E0,-1.842498779E-1,7.177734375E-2,9.621536255E0,9.623567941E0
2.365822179E0,-1.842498779E-1,7.417297363E-2,9.621536255E0,9.623586107E0
2.368172032E0,-1.818542480E-1,6.221008301E-2,9.631118774E0,9.633036381E0
2.370521886E0,-1.818542480E-1,5.264282227E-2,9.638290405E0,9.640149593E0
2.372841222E0,-1.938171387E-1,5.743408203E-2,9.635894775E0,9.638014935E0
2.375191075E0,-1.914215088E-1,7.656860352E-2,9.635894775E0,9.638100076E0
2.377510411E0,-1.794586182E-1,7.656860352E-2,9.640686035E0,9.642660181E0
2.379860265E0,-1.722869873E-1,6.700134277E-2,9.671783447E0,9.673549867E0
2.382179601E0,-1.674957275E-1,6.460571289E-2,9.671783447E0,9.673449424E0
2.384529454E0,-1.746826172E-1,6.221008301E-2,9.650253296E0,9.652034645E0
2.386848790E0,-1.938171387E-1,6.221008301E-2,9.643081665E0,9.645229866E0
2.389198644E0,-1.914215088E-1,5.981445312E-2,9.664611816E0,9.666692378E0
2.391517980E0,-1.962127686E-1,5.503845215E-2,9.657424927E0,9.659574778E0
2.393867833E0,-1.914215088E-1,5.024719238E-2,9.633499146E0,9.635531784E0
2.396187169E0,-1.866455078E-1,6.221008301E-2,9.631118774E0,9.633128022E0
2.398537023E0,-1.866455078E-1,5.264282227E-2,9.609573364E0,9.611529954E0
2.400856359E0,-1.674957275E-1,5.981445312E-2,9.607177734E0,9.608823893E0
2.403206212E0,-1.722869873E-1,5.743408203E-2,9.597610474E0,9.599328533E0
2.405525548E0,-1.746826172E-1,5.503845215E-2,9.611968994E0,9.613713705E0
2.407875402E0,-1.866455078E-1,5.743408203E-2,9.643081665E0,9.645058798E0
2.410225255E0,-1.842498779E-1,5.503845215E-2,9.626327515E0,9.628247954E0
2.412544591E0,-1.866455078E-1,5.024719238E-2,9.614364624E0,9.616307423E0
2.414894445E0,-1.818542480E-1,6.939697266E-2,9.609573364E0,9.611544473E0
2.417213780E0,-1.866455078E-1,6.700134277E-2,9.631118774E0,9.633160155E0
2.419533116E0,-1.698913574E-1,8.135986328E-2,9.626327515E0,9.628170331E0
2.421882970E0,-1.674957275E-1,6.460571289E-2,9.588043213E0,9.589723738E0
2.424232823E0,-1.794586182E-1,5.981445312E-2,9.611968994E0,9.613830200E0
2.426552159E0,-1.818542480E-1,5.743408203E-2,9.647857666E0,9.649742338E0
2.428902013E0,-1.818542480E-1,6.460571289E-2,9.635894775E0,9.637827192E0
2.431221349E0,-1.818542480E-1,7.417297363E-2,9.638290405E0,9.640291206E0
2.433571202E0,-1.818542480E-1,6.939697266E-2,9.633499146E0,9.635465359E0
2.435890538E0,-1.794586182E-1,6.700134277E-2,9.657424927E0,9.659324552E0
2.438240392E0,-1.722869873E-1,6.221008301E-2,9.638290405E0,9.640030852E0
2.440559728E0,-1.842498779E-1,6.939697266E-2,9.628723145E0,9.630735868E0
2.442909581E0,-1.914215088E-1,5.503845215E-2,9.640686035E0,9.642743316E0
2.445228917E0,-1.842498779E-1,5.743408203E-2,9.662216187E0,9.664143435E0
2.447578771E0,-1.866455078E-1,5.024719238E-2,9.647857666E0,9.649793722E0
2.449898107E0,-1.890258789E-1,5.503845215E-2,9.604797363E0,9.606814894E0
2.452247960E0,-1.914215088E-1,5.024719238E-2,9.626327515E0,9.628361667E0
2.454567296E0,-2.010040283E-1,5.264282227E-2,9.633499146E0,9.635739706E0
2.456917150E0,-2.057800293E-1,5.503845215E-2,9.611968994E0,9.614329025E0
2.459236486E0,-1.938171387E-1,6.221008301E-2,9.609573364E0,9.611729055E0
2.461586339E0,-1.914215088E-1,6.460571289E-2,9.623931885E0,9.626052203E0
2.463905675E0,-1.842498779E-1,7.417297363E-2,9.647857666E0,9.649901927E0
2.466255528E0,-1.890258789E-1,6.221008301E-2,9.611968994E0,9.614028751E0
2.468574864E0,-1.842498779E-1,6.221008301E-2,9.607177734E0,9.609145755E0
2.470924718E0,-1.770629883E-1,6.460571289E-2,9.643081665E0,9.644923494E0
2.473274571E0,-1.890258789E-1,6.221008301E-2,9.657424927E0,9.659474991E0
2.475593907E0,-1.794586182E-1,5.981445312E-2,9.652648926E0,9.654502289E0
2.477943761E0,-1.794586182E-1,6.460571289E-2,9.659820557E0,9.661703394E0
2.480263097E0,-1.794586182E-1,5.981445312E-2,9.667007446E0,9.668858057E0
2.482612950E0,-1.842498779E-1,5.743408203E-2,9.647857666E0,9.649787782E0
2.484932286E0,-1.531372070E-1,8.135986328E-2,9.647857666E0,9.649415940E0
2.487282140E0,-1.722869873E-1,7.177734375E-2,9.664611816E0,9.666413831E0
2.489601476E0,-1.890258789E-1,5.743408203E-2,9.664611816E0,9.666630800E0
2.491951329E0,-1.722869873E-1,6.939697266E-2,9.640686035E0,9.642475096E0
2.494270665E0,-1.818542480E-1,6.939697266E-2,9.647857666E0,9.649820954E0
2.496620519E0,-1.698913574E-1,7.656860352E-2,9.662216187E0,9.664013010E0
2.498939855E0,-1.627044678E-1,7.417297363E-2,9.662216187E0,9.663870654E0
2.501289708E0,-1.698913574E-1,6.700134277E-2,9.657424927E0,9.659151540E0
2.503609044E0,-1.770629883E-1,6.460571289E-2,9.645462036E0,9.647303410E0
2.505958898E0,-1.794586182E-1,7.656860352E-2,9.652648926E0,9.654620626E0
2.508278234E0,-1.866455078E-1,6.460571289E-2,9.645462036E0,9.647484042E0
2.510628087E0,-1.866455078E-1,6.700134277E-2,9.638290405E0,9.640330267E0
2.512947423E0,-1.698913574E-1,8.375549316E-2,9.640686035E0,9.642546618E0
2.515297277E0,-1.651000977E-1,7.896423340E-2,9.678970337E0,9.680700397E0
2.517647130E0,-1.555328369E-1,7.417297363E-2,9.662216187E0,9.663752570E0
2.519966466E0,-1.579284668E-1,8.375549316E-2,9.623931885E0,9.625591998E0
2.522316320E0,-1.651000977E-1,9.332275391E-2,9.635894775E0,9.637760907E0
2.524635655E0,-1.674957275E-1,8.375549316E-2,9.652648926E0,9.654465344E0
2.526985509E0,-1.746826172E-1,7.177734375E-2,9.628723145E0,9.630575029E0
2.529304845E0,-1.818542480E-1,6.700134277E-2,9.600006104E0,9.601962161E0
2.531654698E0,-1.818542480E-1,5.981445312E-2,9.609573364E0,9.611480062E0
2.533974034E0,-1.962127686E-1,5.264282227E-2,9.611968994E0,9.614115594E0
2.536323888E0,-1.914215088E-1,5.024719238E-2,9.595214844E0,9.597255591E0
2.538643224E0,-1.938171387E-1,5.024719238E-2,9.583251953E0,9.585343388E0
2.540993077E0,-1.938171387E-1,5.264282227E-2,9.595214844E0,9.597316513E0
2.543312413E0,-1.962127686E-1,4.785156250E-2,9.597610474E0,9.599735206E0
2.545662267E0,-1.866455078E-1,5.264282227E-2,9.600006104E0,9.601964643E0
2.547981603E0,-1.890258789E-1,5.503845215E-2,9.611968994E0,9.613985020E0
2.550331456E0,-1.794586182E-1,5.024719238E-2,9.616760254E0,9.618565795E0
2.552650792E0,-1.722869873E-1,5.264282227E-2,9.609573364E0,9.611261848E0
2.555000646E0,-1.818542480E-1,7.417297363E-2,9.640686035E0,9.642686339E0
2.557350499E0,-1.818542480E-1,6.221008301E-2,9.674179077E0,9.676088150E0
2.559669835E0,-1.818542480E-1,5.981445312E-2,9.655044556E0,9.656942275E0
2.562019689E0,-1.938171387E-1,7.177734375E-2,9.645462036E0,9.647676143E0
2.564339025E0,-1.842498779E-1,7.656860352E-2,9.628723145E0,9.630790215E0
2.566688878E0,-1.674957275E-1,8.613586426E-2,9.640686035E0,9.642525677E0
2.569008214E0,-1.698913574E-1,6.460571289E-2,9.664611816E0,9.666320837E0
2.571358068E0,-1.722869873E-1,6.460571289E-2,9.650253296E0,9.652007324E0
2.573677403E0,-1.866455078E-1,5.981445312E-2,9.655044556E0,9.657033690E0
2.576027257E0,-1.914215088E-1,5.503845215E-2,9.640686035E0,9.642743316E0
2.578346593E0,-1.962127686E-1,6.700134277E-2,9.631118774E0,9.633350273E0
2.580696446E0,-1.962127686E-1,6.460571289E-2,9.633499146E0,9.635713733E0
2.583015782E0,-1.794586182E-1,5.981445312E-2,9.643081665E0,9.644936867E0
2.585365636E0,-2.033843994E-1,6.700134277E-2,9.657424927E0,9.659798684E0
2.587684972E0,-1.818542480E-1,5.503845215E-2,9.650253296E0,9.652123542E0
2.590034825E0,-1.890258789E-1,5.024719238E-2,9.633499146E0,9.635484490E0
2.592354161E0,-1.914215088E-1,7.177734375E-2,9.635894775E0,9.638063203E0
2.594704015E0,-1.914215088E-1,6.939697266E-2,9.633499146E0,9.635650674E0
2.597023351E0,-1.842498779E-1,6.460571289E-2,9.645462036E0,9.647437992E0
2.599373204E0,-1.890258789E-1,5.981445312E-2,9.628723145E0,9.630764141E0
2.601723058E0,-1.842498779E-1,6.700134277E-2,9.633499146E0,9.635493915E0
2.604072911E0,-1.938171387E-1,5.743408203E-2,9.633499146E0,9.635619832E0
2.606392247E0,-2.033843994E-1,5.024719238E-2,9.609573364E0,9.611856753E0
2.608742101E0,-1.914215088E-1,4.785156250E-2,9.585647583E0,9.587678111E0
2.611091954E0,-1.890258789E-1,4.785156250E-2,9.592819214E0,9.594800729E0
2.613411290E0,-1.866455078E-1,4.785156250E-2,9.611968994E0,9.613900055E0
2.615761144E0,-1.938171387E-1,4.785156250E-2,9.609573364E0,9.611646846E0
2.618080480E0,-1.890258789E-1,4.785156250E-2,9.580856323E0,9.582840312E0
2.620430333E0,-1.674957275E-1,5.264282227E-2,9.595214844E0,9.596821035E0
2.622749669E0,-1.890258789E-1,5.024719238E-2,9.623931885E0,9.625919202E0
2.625099523E0,-1.842498779E-1,5.503845215E-2,9.631118774E0,9.633038259E0
2.627418859E0,-1.722869873E-1,7.177734375E-2,9.638290405E0,9.640097340E0
2.629768712E0,-1.842498779E-1,5.743408203E-2,9.647857666E0,9.649787782E0
2.632088048E0,-1.818542480E-1,6.700134277E-2,9.657424927E0,9.659369356E0
2.634437902E0,-1.770629883E-1,6.221008301E-2,9.671783447E0,9.673604108E0
2.636757237E0,-1.842498779E-1,7.417297363E-2,9.678970337E0,9.681008028E0
2.639107091E0,-1.698913574E-1,7.896423340E-2,9.688537598E0,9.690348766E0
2.641426427E0,-1.890258789E-1,7.656860352E-2,9.683746338E0,9.685893695E0
2.643776280E0,-1.746826172E-1,7.177734375E-2,9.674179077E0,9.676022262E0
2.646095616E0,-1.746826172E-1,8.135986328E-2,9.657424927E0,9.659347269E0
2.648445470E0,-1.722869873E-1,7.417297363E-2,9.640686035E0,9.642510652E0
2.650795323E0,-1.722869873E-1,5.981445312E-2,9.659820557E0,9.661541997E0
2.653114659E0,-1.818542480E-1,5.024719238E-2,9.647857666E0,9.649702238E0
2.655464513E0,-1.842498779E-1,6.221008301E-2,9.631118774E0,9.633081903E0
2.657783849E0,-1.986083984E-1,5.743408203E-2,9.614364624E0,9.616587289E0
2.660133702E0,-1.914215088E-1,5.981445312E-2,9.611968994E0,9.614060948E0
2.662453038E0,-2.033843994E-1,5.024719238E-2,9.609573364E0,9.611856753E0
2.664802892E0,-1.914215088E-1,5.503845215E-2,9.611968994E0,9.614032420E0
2.667122228E0,-1.938171387E-1,5.743408203E-2,9.614364624E0,9.616489530E0
2.669472081E0,-2.010040283E-1,5.743408203E-2,9.626327515E0,9.628597131E0
2.671791417E0,-1.842498779E-1,5.981445312E-2,9.621536255E0,9.623486151E0
2.674141271E0,-1.818542480E-1,5.981445312E-2,9.645462036E0,9.647361641E0
2.676460607E0,-1.842498779E-1,5.503845215E-2,9.635894775E0,9.637813309E0
2.678810460E0,-1.770629883E-1,5.503845215E-2,9.647857666E0,9.649639272E0
2.681129796E0,-1.842498779E-1,5.024719238E-2,9.669403076E0,9.671288882E0
2.683479650E0,-1.674957275E-1,5.024719238E-2,9.657424927E0,9.659008014E0
2.685798986E0,-1.770629883E-1,5.264282227E-2,9.664611816E0,9.666376991E0
2.688148839E0,-1.914215088E-1,5.024719238E-2,9.659820557E0,9.661847658E0
2.690468175E0,-2.057800293E-1,5.743408203E-2,9.628723145E0,9.631093058E0
2.692818028E0,-2.081756592E-1,6.460571289E-2,9.616760254E0,9.619230155E0
2.695137364E0,-2.033843994E-1,6.939697266E-2,9.621536255E0,9.623935840E0
2.697487218E0,-1.938171387E-1,6.939697266E-2,9.623931885E0,9.626133489E0
2.699806554E0,-2.081756592E-1,6.221008301E-2,9.609573364E0,9.612029309E0
2.702156407E0,-2.081756592E-1,4.785156250E-2,9.595214844E0,9.597592134E0
2.704506261E0,-2.033843994E-1,5.024719238E-2,9.588043213E0,9.590331728E0
2.706825597E0,-2.129669189E-1,5.264282227E-2,9.597610474E0,9.600117342E0
2.709175450E0,-1.938171387E-1,5.743408203E-2,9.616760254E0,9.618884631E0
2.711494786E0,-1.866455078E-1,5.503845215E-2,9.602401733E0,9.604373214E0
2.713844640E0,-1.866455078E-1,5.503845215E-2,9.614364624E0,9.616333652E0
2.716163976E0,-1.818542480E-1,6.700134277E-2,9.611968994E0,9.613922617E0
2.718513829E0,-1.722869873E-1,5.503845215E-2,9.611968994E0,9.613670474E0
2.720833165E0,-1.842498779E-1,6.460571289E-2,9.635894775E0,9.637872693E0
2.723183019E0,-1.651000977E-1,7.656860352E-2,9.628723145E0,9.630442886E0
2.725502355E0,-1.603240967E-1,7.177734375E-2,9.631118774E0,9.632720522E0
2.727852208E0,-1.627044678E-1,8.613586426E-2,9.640686035E0,9.642443640E0
2.730171544E0,-1.507415771E-1,7.896423340E-2,9.631118774E0,9.632622032E0
2.732521398E0,-1.483612061E-1,8.613586426E-2,9.614364624E0,9.615895047E0
2.734840734E0,-1.651000977E-1,8.613586426E-2,9.616760254E0,9.618563053E0
2.737190587E0,-1.794586182E-1,7.177734375E-2,9.638290405E0,9.640228178E0
2.739509923E0,-1.746826172E-1,7.177734375E-2,9.655044556E0,9.656891393E0
2.741859777E0,-1.674957275E-1,8.613586426E-2,9.643081665E0,9.644920850E0
2.744179112E0,-1.698913574E-1,7.656860352E-2,9.657424927E0,9.659222642E0
2.746528966E0,-1.698913574E-1,7.417297363E-2,9.678970337E0,9.680745399E0
2.748848302E0,-1.842498779E-1,7.417297363E-2,9.667007446E0,9.669047658E0
2.751198155E0,-1.794586182E-1,8.375549316E-2,9.667007446E0,9.669035802E0
2.753548009E0,-1.651000977E-1,9.809875488E-2,9.662216187E0,9.664124536E0
2.755867345E0,-1.603240967E-1,7.656860352E-2,9.678970337E0,9.680600878E0
2.758217198E0,-1.603240967E-1,7.656860352E-2,9.683746338E0,9.685376074E0
2.760536534E0,-1.555328369E-1,8.375549316E-2,9.652648926E0,9.654265209E0
2.762886388E0,-1.651000977E-1,9.571838379E-2,9.659820557E0,9.661705504E0
2.765205724E0,-1.531372070E-1,1.052856445E-1,9.638290405E0,9.640081847E0
2.767555577E0,-1.483612061E-1,9.092712402E-2,9.635894775E0,9.637465793E0
2.769874913E0,-1.483612061E-1,1.028900146E-1,9.609573364E0,9.611269305E0
2.772224767E0,-1.459655762E-1,9.332275391E-2,9.600006104E0,9.601569261E0
2.774544103E0,-1.579284668E-1,8.135986328E-2,9.628723145E0,9.630361895E0
2.776893956E0,-1.603240967E-1,8.853149414E-2,9.633499146E0,9.635239874E0
2.779213292E0,-1.603240967E-1,7.656860352E-2,9.643081665E0,9.644718273E0
2.781563146E0,-1.698913574E-1,7.656860352E-2,9.638290405E0,9.640091688E0
2.783882482E0,-1.651000977E-1,8.613586426E-2,9.640686035E0,9.642484361E0
2.786232335E0,-1.627044678E-1,9.332275391E-2,9.657424927E0,9.659246249E0
2.788551671E0,-1.746826172E-1,8.375549316E-2,9.662216187E0,9.664158041E0
2.790901525E0,-1.746826172E-1,7.417297363E-2,9.671783447E0,9.673645161E0
2.793220861E0,-1.698913574E-1,7.656860352E-2,9.671783447E0,9.673578494E0
2.795570714E0,-1.818542480E-1,7.417297363E-2,9.667007446E0,9.669002304E0
2.797920568E0,-1.794586182E-1,7.656860352E-2,9.635894775E0,9.637869903E0
2.800239903E0,-1.842498779E-1,8.853149414E-2,9.633499146E0,9.635667679E0
2.802589757E0,-1.651000977E-1,8.613586426E-2,9.623931885E0,9.625733341E0
2.804909093E0,-1.555328369E-1,8.375549316E-2,9.638290405E0,9.639909096E0
2.807258946E0,-1.722869873E-1,6.700134277E-2,9.671783447E0,9.673549867E0
2.809578282E0,-1.770629883E-1,6.700134277E-2,9.664611816E0,9.666465851E0
2.811928136E0,-1.603240967E-1,5.743408203E-2,9.647857666E0,9.649360602E0
2.814247472E0,-1.746826172E-1,6.221008301E-2,9.667007446E0,9.668785709E0
2.816597325E0,-1.770629883E-1,5.503845215E-2,9.674179077E0,9.675955836E0
2.818916661E0,-1.842498779E-1,6.460571289E-2,9.667007446E0,9.668978999E0
2.821327550E0,-1.746826172E-1,5.264282227E-2,9.659820557E0,9.661543276E0
2.823585851E0,-1.914215088E-1,5.024719238E-2,9.664611816E0,9.666637913E0
2.825935704E0,-1.746826172E-1,6.700134277E-2,9.693328857E0,9.695134220E0
2.828255040E0,-1.842498779E-1,7.177734375E-2,9.671783447E0,9.673804580E0
2.830604894E0,-1.938171387E-1,6.939697266E-2,9.664611816E0,9.666804156E0
2.832924230E0,-1.722869873E-1,5.503845215E-2,9.664611816E0,9.666304030E0
2.835274083E0,-1.962127686E-1,5.024719238E-2,9.638290405E0,9.640418361E0
2.837593419E0,-1.914215088E-1,5.024719238E-2,9.631118774E0,9.633151915E0
2.839943273E0,-2.033843994E-1,5.264282227E-2,9.626327515E0,9.628619730E0
2.842262609E0,-1.938171387E-1,5.024719238E-2,9.611968994E0,9.614054182E0
2.844612462E0,-2.057800293E-1,4.785156250E-2,9.592819214E0,9.595145422E0
2.846931798E0,-1.986083984E-1,4.785156250E-2,9.561721802E0,9.563903956E0
2.849281652E0,-2.057800293E-1,4.785156250E-2,9.564117432E0,9.566450619E0
2.851600987E0,-2.033843994E-1,4.785156250E-2,9.580856323E0,9.583134293E0
2.853950841E0,-1.890258789E-1,4.785156250E-2,9.600006104E0,9.601986135E0
2.856300695E0,-1.962127686E-1,4.785156250E-2,9.595214844E0,9.597340107E0
2.858620030E0,-2.033843994E-1,4.785156250E-2,9.571289062E0,9.573569308E0
2.860969884E0,-1.866455078E-1,4.785156250E-2,9.597610474E0,9.599544423E0
2.863289220E0,-1.938171387E-1,4.785156250E-2,9.614364624E0,9.616437073E0
2.865639073E0,-2.105712891E-1,4.785156250E-2,9.595214844E0,9.597644395E0
2.867958409E0,-1.986083984E-1,4.785156250E-2,9.602401733E0,9.604574645E0
2.870308263E0,-1.890258789E-1,4.785156250E-2,9.611968994E0,9.613946562E0
2.872627599E0,-1.842498779E-1,4.785156250E-2,9.635894775E0,9.637774946E0
2.874977452E0,-1.818542480E-1,4.785156250E-2,9.621536255E0,9.623373662E0
2.877296788E0,-1.914215088E-1,4.785156250E-2,9.602401733E0,9.604428719E0
2.879646642E0,-1.842498779E-1,4.785156250E-2,9.626327515E0,9.628209554E0
2.881965978E0,-1.866455078E-1,5.024719238E-2,9.628723145E0,9.630663047E0
2.884315831E0,-1.842498779E-1,5.264282227E-2,9.623931885E0,9.625839403E0
2.886635167E0,-1.818542480E-1,6.221008301E-2,9.631118774E0,9.633036381E0
2.889015538E0,-1.770629883E-1,5.024719238E-2,9.633499146E0,9.635257229E0
2.891334874E0,-1.722869873E-1,5.503845215E-2,9.643081665E0,9.644777656E0
2.893684728E0,-1.794586182E-1,5.264282227E-2,9.643081665E0,9.644895057E0
2.896034581E0,-1.890258789E-1,4.785156250E-2,9.631118774E0,9.633092411E0
2.898353917E0,-1.818542480E-1,4.785156250E-2,9.662216187E0,9.664045860E0
2.900703771E0,-1.938171387E-1,5.024719238E-2,9.662216187E0,9.664290533E0
2.903023107E0,-2.010040283E-1,5.503845215E-2,9.650253296E0,9.652503329E0
2.905372960E0,-1.818542480E-1,5.264282227E-2,9.640686035E0,9.642544761E0
2.907692296E0,-1.866455078E-1,5.503845215E-2,9.659820557E0,9.661780321E0
2.910042150E0,-1.866455078E-1,5.503845215E-2,9.662216187E0,9.664175465E0
2.912361486E0,-1.914215088E-1,5.264282227E-2,9.652648926E0,9.654690298E0
2.914711339E0,-1.794586182E-1,6.939697266E-2,9.659820557E0,9.661736620E0
2.917030675E0,-1.603240967E-1,7.177734375E-2,9.690933228E0,9.692525090E0
2.919380528E0,-1.579284668E-1,9.332275391E-2,9.700500488E0,9.702234808E0
2.921699864E0,-1.651000977E-1,9.332275391E-2,9.664611816E0,9.666472404E0
2.924049718E0,-1.651000977E-1,8.135986328E-2,9.652648926E0,9.654403594E0
2.926399571E0,-1.698913574E-1,7.177734375E-2,9.659820557E0,9.661581043E0
2.928718907E0,-1.794586182E-1,6.221008301E-2,9.674179077E0,9.676043422E0
2.931068761E0,-1.842498779E-1,6.221008301E-2,9.638290405E0,9.640252074E0
2.933388097E0,-1.842498779E-1,6.700134277E-2,9.645462036E0,9.647454332E0
2.935737950E0,-1.794586182E-1,6.939697266E-2,9.631118774E0,9.633040547E0
2.938057286E0,-1.746826172E-1,7.896423340E-2,9.621536255E0,9.623445811E0
2.940407140E0,-1.866455078E-1,7.896423340E-2,9.592819214E0,9.594959738E0
2.942726476E0,-1.986083984E-1,6.700134277E-2,9.580856323E0,9.583148875E0
2.945076329E0,-1.986083984E-1,6.221008301E-2,9.592819214E0,9.595076647E0
2.947395665E0,-1.890258789E-1,6.221008301E-2,9.592819214E0,9.594883081E0
2.949745519E0,-1.842498779E-1,6.221008301E-2,9.592819214E0,9.594790179E0
2.952064855E0,-1.890258789E-1,5.743408203E-2,9.588043213E0,9.590078316E0
2.954414708E0,-1.746826172E-1,6.221008301E-2,9.623931885E0,9.625718105E0
2.956734044E0,-1.651000977E-1,8.375549316E-2,9.633499146E0,9.635277827E0
2.959083898E0,-1.674957275E-1,8.613586426E-2,9.640686035E0,9.642525677E0
2.961403234E0,-1.555328369E-1,8.613586426E-2,9.619140625E0,9.620783555E0
2.963753087E0,-1.483612061E-1,8.853149414E-2,9.607177734E0,9.608731076E0
2.966072423E0,-1.435699463E-1,7.896423340E-2,9.626327515E0,9.627721906E0
2.968422277E0,-1.483612061E-1,8.613586426E-2,9.628723145E0,9.630251286E0
2.970772130E0,-1.579284668E-1,8.375549316E-2,9.633499146E0,9.635157610E0
2.973091466E0,-1.603240967E-1,9.332275391E-2,9.640686035E0,9.642470647E0
2.975441320E0,-1.651000977E-1,6.939697266E-2,9.655044556E0,9.656705409E0
2.977760655E0,-1.627044678E-1,9.332275391E-2,9.647857666E0,9.649680794E0
2.980110509E0,-1.507415771E-1,1.052856445E-1,9.647857666E0,9.649609610E0
2.982429845E0,-1.340026855E-1,1.124572754E-1,9.631118774E0,9.632707418E0
2.984779698E0,-1.459655762E-1,9.571838379E-2,9.602401733E0,9.603988078E0
2.987099034E0,-1.316070557E-1,1.028900146E-1,9.614364624E0,9.615815821E0
2.989448888E0,-1.435699463E-1,1.004943848E-1,9.623931885E0,9.625527330E0
2.991768224E0,-1.603240967E-1,9.571838379E-2,9.645462036E0,9.647269236E0
2.994118077E0,-1.531372070E-1,9.092712402E-2,9.655044556E0,9.656687016E0
2.996437413E0,-1.603240967E-1,9.571838379E-2,9.652648926E0,9.654454781E0
2.998787267E0,-1.459655762E-1,8.853149414E-2,9.674179077E0,9.675685226E0
3.001106603E0,-1.651000977E-1,8.375549316E-2,9.676574707E0,9.678345473E0
3.003456456E0,-1.579284668E-1,9.571838379E-2,9.676574707E0,9.678336710E0
3.005806310E0,-1.627044678E-1,1.004943848E-1,9.674179077E0,9.676069072E0
3.008125646E0,-1.435699463E-1,8.613586426E-2,9.657424927E0,9.658876122E0
3.010475499E0,-1.579284668E-1,8.135986328E-2,9.676574707E0,9.678205355E0
3.012794835E0,-1.507415771E-1,8.135986328E-2,9.669403076E0,9.670920241E0
3.015144689E0,-1.627044678E-1,8.613586426E-2,9.621536255E0,9.623297358E0
3.017464025E0,-1.531372070E-1,9.332275391E-2,9.628723145E0,9.630393010E0
3.019813878E0,-1.531372070E-1,1.148529053E-1,9.640686035E0,9.642586241E0
3.022133214E0,-1.555328369E-1,9.332275391E-2,9.628723145E0,9.630431402E0
3.024483068E0,-1.627044678E-1,7.417297363E-2,9.616760254E0,9.618422540E0
3.026802403E0,-1.698913574E-1,7.177734375E-2,9.614364624E0,9.616133432E0
3.029152257E0,-1.794586182E-1,7.177734375E-2,9.626327515E0,9.628267695E0
3.031471593E0,-1.914215088E-1,6.221008301E-2,9.623931885E0,9.626036423E0
3.033821446E0,-2.033843994E-1,6.221008301E-2,9.595214844E0,9.597571735E0
3.036140782E0,-1.794586182E-1,5.024719238E-2,9.609573364E0,9.611380256E0
3.038490636E0,-1.842498779E-1,5.503845215E-2,9.611968994E0,9.613892302E0
3.040809972E0,-1.914215088E-1,6.221008301E-2,9.609573364E0,9.611681046E0
3.043159825E0,-1.938171387E-1,6.460571289E-2,9.628723145E0,9.630890321E0
3.045509679E0,-1.866455078E-1,6.939697266E-2,9.640686035E0,9.642742334E0
3.047829015E0,-1.674957275E-1,5.981445312E-2,9.633499146E0,9.635140807E0
3.050178868E0,-1.722869873E-1,5.503845215E-2,9.628723145E0,9.630421664E0
3.052498204E0,-1.890258789E-1,6.460571289E-2,9.631118774E0,9.633190205E0
3.054848058E0,-1.770629883E-1,6.460571289E-2,9.631118774E0,9.632962890E0
3.057167394E0,-1.818542480E-1,5.743408203E-2,9.619140625E0,9.621030922E0
3.059517247E0,-1.794586182E-1,5.503845215E-2,9.611968994E0,9.613801671E0
3.061836583E0,-1.818542480E-1,5.743408203E-2,9.633499146E0,9.635386626E0
3.064186437E0,-1.746826172E-1,6.221008301E-2,9.650253296E0,9.652034645E0
3.066505773E0,-1.651000977E-1,6.460571289E-2,9.657424927E0,9.659052136E0
3.068855626E0,-1.794586182E-1,6.460571289E-2,9.650253296E0,9.652138000E0
3.071174962E0,-1.698913574E-1,5.743408203E-2,9.662216187E0,9.663880348E0
3.073524816E0,-1.770629883E-1,5.264282227E-2,9.676574707E0,9.678337700E0
3.075844152E0,-1.722869873E-1,5.743408203E-2,9.655044556E0,9.656752397E0
3.078194005E0,-1.794586182E-1,6.221008301E-2,9.655044556E0,9.656912595E0
3.080543859E0,-1.842498779E-1,6.460571289E-2,9.645462036E0,9.647437992E0
3.082863195E0,-1.794586182E-1,5.743408203E-2,9.664611816E0,9.666448450E0
3.085213048E0,-1.842498779E-1,7.417297363E-2,9.650253296E0,9.652297049E0
3.087532384E0,-1.794586182E-1,5.743408203E-2,9.647857666E0,9.649697488E0
3.089882237E0,-1.722869873E-1,5.264282227E-2,9.674179077E0,9.675856287E0
3.092201573E0,-1.722869873E-1,5.264282227E-2,9.700500488E0,9.702173148E0
3.094551427E0,-1.914215088E-1,5.264282227E-2,9.659820557E0,9.661860413E0
3.096870763E0,-1.914215088E-1,5.981445312E-2,9.657424927E0,9.659507036E0
3.099220616E0,-1.938171387E-1,5.264282227E-2,9.633499146E0,9.635592464E0
3.101539952E0,-1.986083984E-1,5.264282227E-2,9.619140625E0,9.621334779E0
3.103889806E0,-1.986083984E-1,5.264282227E-2,9.607177734E0,9.609374620E0
3.106209142E0,-1.986083984E-1,4.785156250E-2,9.578475952E0,9.580654290E0
3.108558995E0,-1.986083984E-1,4.785156250E-2,9.595214844E0,9.597389383E0
3.110878331E0,-2.010040283E-1,5.024719238E-2,9.611968994E0,9.614201753E0
3.113228185E0,-2.033843994E-1,4.785156250E-2,9.595214844E0,9.597489405E0
3.115547521E0,-1.962127686E-1,4.785156250E-2,9.585647583E0,9.587774966E0
3.117897374E0,-1.962127686E-1,5.503845215E-2,9.626327515E0,9.628484310E0
3.120216710E0,-2.033843994E-1,5.743408203E-2,9.616760254E0,9.619082164E0
3.122566564E0,-1.938171387E-1,5.743408203E-2,9.595214844E0,9.597343990E0
3.124885900E0,-2.033843994E-1,5.024719238E-2,9.602401733E0,9.604686827E0
3.127235753E0,-2.010040283E-1,4.785156250E-2,9.597610474E0,9.599834332E0
3.129585607E0,-1.914215088E-1,4.785156250E-2,9.609573364E0,9.611598837E0
3.131904943E0,-1.938171387E-1,5.264282227E-2,9.621536255E0,9.623632176E0
3.134254796E0,-2.010040283E-1,6.939697266E-2,9.635894775E0,9.638240850E0
3.136574132E0,-1.818542480E-1,6.700134277E-2,9.631118774E0,9.633068514E0
3.138923986E0,-1.914215088E-1,7.417297363E-2,9.640686035E0,9.642871515E0
3.141243321E0,-2.057800293E-1,7.417297363E-2,9.621536255E0,9.624022390E0
3.143593175E0,-1.866455078E-1,7.656860352E-2,9.614364624E0,9.616480979E0
3.145912511E0,-1.866455078E-1,8.375549316E-2,9.621536255E0,9.623710897E0
3.148262364E0,-1.866455078E-1,6.939697266E-2,9.645462036E0,9.647517317E0
3.150581700E0,-1.986083984E-1,6.221008301E-2,9.643081665E0,9.645327334E0
3.152931554E0,-1.914215088E-1,6.221008301E-2,9.621536255E0,9.623641317E0
3.155250890E0,-1.842498779E-1,6.700134277E-2,9.647857666E0,9.649849467E0
3.157600743E0,-1.770629883E-1,5.503845215E-2,9.662216187E0,9.663995145E0
3.159920079E0,-1.842498779E-1,5.743408203E-2,9.645462036E0,9.647392631E0
3.162269933E0,-1.746826172E-1,5.503845215E-2,9.621536255E0,9.623279231E0
3.164589269E0,-1.938171387E-1,6.700134277E-2,9.655044556E0,9.657222149E0
3.166939122E0,-1.962127686E-1,5.981445312E-2,9.657424927E0,9.659603172E0
3.169258458E0,-1.986083984E-1,6.221008301E-2,9.616760254E0,9.619012068E0
3.171608312E0,-1.866455078E-1,8.135986328E-2,9.626327515E0,9.628480534E0
3.173988683E0,-1.674957275E-1,6.939697266E-2,9.674179077E0,9.675877819E0
3.176308019E0,-1.627044678E-1,7.417297363E-2,9.643081665E0,9.644739414E0
3.178657872E0,-1.722869873E-1,7.177734375E-2,9.655044556E0,9.656848356E0
3.180977208E0,-1.746826172E-1,6.700134277E-2,9.652648926E0,9.654461895E0
3.183327062E0,-1.818542480E-1,6.700134277E-2,9.667007446E0,9.668949949E0
3.185646398E0,-1.938171387E-1,5.503845215E-2,9.645462036E0,9.647566129E0
3.187996251E0,-1.890258789E-1,6.700134277E-2,9.602401733E0,9.604495771E0
3.190315587E0,-2.105712891E-1,6.460571289E-2,9.628723145E0,9.631242057E0
3.192665441E0,-2.105712891E-1,5.743408203E-2,9.616760254E0,9.619236806E0
3.194984777E0,-2.081756592E-1,5.743408203E-2,9.561721802E0,9.564160161E0
3.197334630E0,-1.986083984E-1,5.503845215E-2,9.566513062E0,9.568732763E0
3.199653966E0,-2.081756592E-1,5.024719238E-2,9.602401733E0,9.604789479E0
3.202003820E0,-2.033843994E-1,4.785156250E-2,9.573684692E0,9.575964368E0
3.204323155E0,-1.938171387E-1,4.785156250E-2,9.568893433E0,9.570975728E0
3.206673009E0,-1.914215088E-1,4.785156250E-2,9.583251953E0,9.585282988E0
3.208992345E0,-1.890258789E-1,4.785156250E-2,9.595214844E0,9.597195864E0
3.211342198E0,-1.890258789E-1,4.785156250E-2,9.600006104E0,9.601986135E0
3.213661534E0,-1.890258789E-1,5.024719238E-2,9.592819214E0,9.594812975E0
3.216011388E0,-1.890258789E-1,5.264282227E-2,9.619140625E0,9.621141742E0
3.218330724E0,-1.890258789E-1,5.743408203E-2,9.626327515E0,9.628354526E0
3.220680577E0,-1.866455078E-1,6.221008301E-2,9.643081665E0,9.645088420E0
3.222999913E0,-1.914215088E-1,6.460571289E-2,9.650253296E0,9.652367832E0
3.225349767E0,-1.866455078E-1,5.743408203E-2,9.657424927E0,9.659399124E0
3.227699620E0,-1.818542480E-1,6.939697266E-2,9.640686035E0,9.642650784E0
3.230018956E0,-1.794586182E-1,6.460571289E-2,9.640686035E0,9.642572609E0
3.232368810E0,-1.842498779E-1,6.460571289E-2,9.621536255E0,9.623517123E0
3.234688146E0,-1.890258789E-1,6.939697266E-2,9.623931885E0,9.626038211E0
3.237037999E0,-2.010040283E-1,6.939697266E-2,9.616760254E0,9.619110995E0
3.239357335E0,-1.986083984E-1,6.700134277E-2,9.609573364E0,9.611859067E0
3.241707189E0,-2.010040283E-1,5.503845215E-2,9.600006104E0,9.602267911E0
3.244026525E0,-1.986083984E-1,6.221008301E-2,9.607177734E0,9.609431794E0
3.246376378E0,-1.866455078E-1,5.981445312E-2,9.616760254E0,9.618757305E0
3.248695714E0,-1.818542480E-1,6.221008301E-2,9.616760254E0,9.618680723E0
3.251045568E0,-1.938171387E-1,7.656860352E-2,9.614364624E0,9.616622846E0
3.253364903E0,-1.842498779E-1,8.135986328E-2,9.640686035E0,9.642789776E0
3.255714757E0,-1.890258789E-1,7.177734375E-2,9.655044556E0,9.657161495E0
3.258034093E0,-1.674957275E-1,8.853149414E-2,9.683746338E0,9.685599402E0
3.260383946E0,-1.579284668E-1,6.700134277E-2,9.688537598E0,9.690056314E0
3.262703282E0,-1.603240967E-1,7.896423340E-2,9.664611816E0,9.666264052E0
3.265053136E0,-1.746826172E-1,6.700134277E-2,9.647857666E0,9.649671535E0
3.267402989E0,-1.651000977E-1,8.375549316E-2,9.669403076E0,9.671175155E0
3.269722325E0,-1.483612061E-1,8.613586426E-2,9.640686035E0,9.642212281E0
3.272072179E0,-1.531372070E-1,9.092712402E-2,9.645462036E0,9.647106128E0
3.274391515E0,-1.435699463E-1,9.571838379E-2,9.631118774E0,9.632664387E0
3.276741368E0,-1.507415771E-1,9.809875488E-2,9.645462036E0,9.647138658E0
3.279060704E0,-1.627044678E-1,8.135986328E-2,9.643081665E0,9.644797363E0
3.281410558E0,-1.794586182E-1,6.700134277E-2,9.635894775E0,9.637798644E0
3.283729894E0,-1.890258789E-1,6.939697266E-2,9.628723145E0,9.630828423E0
3.286079747E0,-1.890258789E-1,6.221008301E-2,9.619140625E0,9.621198846E0
3.288399083E0,-1.914215088E-1,7.656860352E-2,9.626327515E0,9.628535006E0
3.290748937E0,-1.938171387E-1,6.700134277E-2,9.638290405E0,9.640471783E0
3.293068273E0,-1.794586182E-1,5.743408203E-2,9.645462036E0,9.647302315E0
3.295418126E0,-1.842498779E-1,6.939697266E-2,9.631118774E0,9.633130997E0
3.297737462E0,-1.866455078E-1,7.417297363E-2,9.628723145E0,9.630817596E0
3.300087316E0,-1.770629883E-1,8.135986328E-2,9.631118774E0,9.633089825E0
3.302406652E0,-1.842498779E-1,6.700134277E-2,9.643081665E0,9.645074453E0
3.304756505E0,-1.866455078E-1,6.700134277E-2,9.633499146E0,9.635540022E0
3.307075841E0,-1.890258789E-1,5.981445312E-2,9.626327515E0,9.628369019E0
3.309425695E0,-1.890258789E-1,5.743408203E-2,9.600006104E0,9.602038671E0
3.311745030E0,-1.866455078E-1,5.503845215E-2,9.619140625E0,9.621108675E0
3.314094884E0,-1.890258789E-1,6.460571289E-2,9.604797363E0,9.606874469E0
3.316414220E0,-1.914215088E-1,5.503845215E-2,9.616760254E0,9.618822652E0
3.318764073E0,-2.010040283E-1,5.503845215E-2,9.607177734E0,9.609437854E0
3.321113927E0,-1.962127686E-1,5.743408203E-2,9.590438843E0,9.592617751E0
3.323433263E0,-1.986083984E-1,5.264282227E-2,9.597610474E0,9.599809548E0
3.325783116E0,-1.986083984E-1,4.785156250E-2,9.609573364E0,9.611744655E0
3.328102452E0,-1.938171387E-1,5.024719238E-2,9.623931885E0,9.626014481E0
3.330452306E0,-1.986083984E-1,5.024719238E-2,9.611968994E0,9.614151966E0
3.332771642E0,-1.818542480E-1,6.460571289E-2,9.626327515E0,9.628261852E0
3.335121495E0,-1.818542480E-1,7.177734375E-2,9.631118774E0,9.633102917E0
3.337440831E0,-1.866455078E-1,7.417297363E-2,9.628723145E0,9.630817596E0
3.339790685E0,-1.770629883E-1,7.417297363E-2,9.640686035E0,9.642597169E0
3.342110021E0,-1.555328369E-1,7.656860352E-2,9.650253296E0,9.651810291E0
3.344459874E0,-1.746826172E-1,6.460571289E-2,9.657424927E0,9.659220679E0
3.346779210E0,-1.818542480E-1,5.981445312E-2,9.664611816E0,9.666507658E0
3.349129064E0,-1.890258789E-1,5.743408203E-2,9.671783447E0,9.673800934E0
3.351448400E0,-1.890258789E-1,6.460571289E-2,9.645462036E0,9.647530387E0
3.353798253E0,-1.866455078E-1,6.460571289E-2,9.638290405E0,9.640313915E0
3.356117589E0,-1.914215088E-1,5.503845215E-2,9.621536255E0,9.623597629E0
3.358467443E0,-1.938171387E-1,5.743408203E-2,9.611968994E0,9.614094430E0
3.360817296E0,-2.033843994E-1,5.264282227E-2,9.611968994E0,9.614264633E0
3.363136632E0,-1.986083984E-1,6.460571289E-2,9.609573364E0,9.611842666E0
3.365486486E0,-1.962127686E-1,5.743408203E-2,9.609573364E0,9.611747935E0
3.367805821E0,-1.866455078E-1,6.221008301E-2,9.614364624E0,9.616377372E0
3.370155675E0,-1.794586182E-1,7.656860352E-2,9.623931885E0,9.625909467E0
3.372475011E0,-1.698913574E-1,7.656860352E-2,9.626327515E0,9.628131036E0
3.374824864E0,-1.770629883E-1,7.177734375E-2,9.645462036E0,9.647354103E0
3.377144200E0,-1.746826172E-1,6.700134277E-2,9.645462036E0,9.647276356E0
3.379494054E0,-1.866455078E-1,6.221008301E-2,9.652648926E0,9.654653693E0
3.381813390E0,-1.914215088E-1,6.460571289E-2,9.635894775E0,9.638012462E0
3.384163243E0,-1.770629883E-1,6.700134277E-2,9.647857666E0,9.649714919E0
3.386482579E0,-1.794586182E-1,6.939697266E-2,9.676574707E0,9.678487454E0
3.388832433E0,-1.818542480E-1,7.177734375E-2,9.671783447E0,9.673759249E0
3.391151769E0,-1.770629883E-1,7.656860352E-2,9.664611816E0,9.666536899E0
3.393501622E0,-1.698913574E-1,6.700134277E-2,9.676574707E0,9.678297904E0
3.395851476E0,-1.770629883E-1,5.503845215E-2,9.671783447E0,9.673560647E0
3.398170812E0,-1.866455078E-1,5.264282227E-2,9.659820557E0,9.661766971E0
3.400520665E0,-1.890258789E-1,5.264282227E-2,9.643081665E0,9.645077815E0
3.402840001E0,-1.890258789E-1,4.785156250E-2,9.655044556E0,9.657013303E0
3.405189855E0,-1.866455078E-1,5.981445312E-2,9.647857666E0,9.649848282E0
3.407509191E0,-1.842498779E-1,6.700134277E-2,9.635894775E0,9.637889049E0
3.409859044E0,-1.698913574E-1,6.700134277E-2,9.626327515E0,9.628059704E0
3.412178380E0,-1.627044678E-1,7.656860352E-2,9.662216187E0,9.663889338E0
3.414528234E0,-1.818542480E-1,6.939697266E-2,9.669403076E0,9.671361991E0
3.416847570E0,-1.866455078E-1,6.221008301E-2,9.655044556E0,9.657048825E0
3.419197423E0,-1.818542480E-1,5.503845215E-2,9.657424927E0,9.659293784E0
3.421516759E0,-1.746826172E-1,5.981445312E-2,9.647857666E0,9.649624310E0
3.423866612E0,-1.890258789E-1,5.743408203E-2,9.635894775E0,9.637919774E0
3.426277501E0,-1.914215088E-1,5.743408203E-2,9.614364624E0,9.616441545E0
3.428535802E0,-1.890258789E-1,5.981445312E-2,9.600006104E0,9.602053204E0
3.430855138E0,-1.890258789E-1,5.264282227E-2,9.604797363E0,9.606801468E0
3.433204991E0,-1.986083984E-1,5.024719238E-2,9.600006104E0,9.602191795E0
3.435554845E0,-2.057800293E-1,4.785156250E-2,9.604797363E0,9.607120671E0
3.437874181E0,-2.129669189E-1,5.024719238E-2,9.571289062E0,9.573789950E0
3.440224034E0,-2.105712891E-1,5.264282227E-2,9.547363281E0,9.549830216E0
3.442543370E0,-2.081756592E-1,5.024719238E-2,9.568893433E0,9.571289537E0
3.444893224E0,-2.153472900E-1,4.785156250E-2,9.616760254E0,9.619290099E0
3.447212560E0,-2.033843994E-1,4.785156250E-2,9.609573364E0,9.611844528E0
3.449562413E0,-1.962127686E-1,5.503845215E-2,9.609573364E0,9.611733919E0
3.451881749E0,-1.794586182E-1,5.743408203E-2,9.623931885E0,9.625776280E0
3.454231603E0,-1.746826172E-1,6.700134277E-2,9.647857666E0,9.649671535E0
3.456550939E0,-1.698913574E-1,5.981445312E-2,9.631118774E0,9.632802795E0
3.458900792E0,-1.794586182E-1,6.700134277E-2,9.635894775E0,9.637798644E0
3.461250646E0,-1.698913574E-1,6.221008301E-2,9.652648926E0,9.654344331E0
3.463600499E0,-1.698913574E-1,6.939697266E-2,9.643081665E0,9.644827785E0
3.465919835E0,-1.674957275E-1,5.503845215E-2,9.614364624E0,9.615981030E0
3.468269689E0,-1.746826172E-1,6.221008301E-2,9.614364624E0,9.616152621E0
3.470589025E0,-1.890258789E-1,5.743408203E-2,9.611968994E0,9.613999033E0
3.472938878E0,-1.770629883E-1,5.981445312E-2,9.611968994E0,9.613785780E0
3.475258214E0,-1.770629883E-1,6.700134277E-2,9.607177734E0,9.609042850E0
3.477608068E0,-1.794586182E-1,6.460571289E-2,9.621536255E0,9.623426583E0
3.479927403E0,-1.914215088E-1,5.024719238E-2,9.640686035E0,9.642717159E0
3.482277257E0,-1.866455078E-1,5.743408203E-2,9.626327515E0,9.628308088E0
3.484596593E0,-1.938171387E-1,5.264282227E-2,9.628723145E0,9.630817501E0
3.486946446E0,-1.962127686E-1,5.264282227E-2,9.657424927E0,9.659561426E0
3.489296300E0,-1.890258789E-1,5.743408203E-2,9.659820557E0,9.661840541E0
3.491615636E0,-1.962127686E-1,6.939697266E-2,9.628723145E0,9.630972162E0
3.493965489E0,-1.962127686E-1,8.135986328E-2,9.628723145E0,9.631065791E0
3.496284825E0,-1.722869873E-1,7.417297363E-2,9.645462036E0,9.647285749E0
3.498634679E0,-1.866455078E-1,6.460571289E-2,9.652648926E0,9.654669426E0
3.500954015E0,-1.914215088E-1,6.460571289E-2,9.681365967E0,9.683473709E0
3.503303868E0,-1.890258789E-1,5.503845215E-2,9.667007446E0,9.669011996E0
3.505623204E0,-1.842498779E-1,5.743408203E-2,9.669403076E0,9.671328892E0
3.507973058E0,-1.794586182E-1,5.264282227E-2,9.678970337E0,9.680777006E0
3.510292394E0,-1.914215088E-1,6.939697266E-2,9.669403076E0,9.671546618E0
3.512642247E0,-1.770629883E-1,6.939697266E-2,9.657424927E0,9.659297255E0
3.514961583E0,-1.746826172E-1,6.700134277E-2,9.614364624E0,9.616184811E0
3.517311437E0,-1.746826172E-1,7.177734375E-2,9.640686035E0,9.642535623E0
3.519630773E0,-1.842498779E-1,5.264282227E-2,9.652648926E0,9.654550770E0
3.521980626E0,-1.890258789E-1,5.024719238E-2,9.655044556E0,9.657025470E0
3.524299962E0,-2.033843994E-1,5.264282227E-2,9.631118774E0,9.633409849E0
3.526649816E0,-1.890258789E-1,5.743408203E-2,9.616760254E0,9.618789281E0
3.528969152E0,-1.866455078E-1,6.939697266E-2,9.623931885E0,9.625991762E0
3.531319005E0,-1.818542480E-1,5.981445312E-2,9.602401733E0,9.604309855E0
3.533638341E0,-1.770629883E-1,5.024719238E-2,9.588043213E0,9.589809630E0
3.535988195E0,-1.866455078E-1,5.024719238E-2,9.597610474E0,9.599556663E0
3.538307530E0,-1.866455078E-1,4.785156250E-2,9.600006104E0,9.601939570E0
3.540657384E0,-1.794586182E-1,5.024719238E-2,9.588043213E0,9.589854161E0
3.542976720E0,-1.627044678E-1,5.503845215E-2,9.592819214E0,9.594356802E0
3.545326573E0,-1.603240967E-1,5.503845215E-2,9.626327515E0,9.627819819E0
3.547676427E0,-1.651000977E-1,7.656860352E-2,9.633499146E0,9.635218035E0
3.549995763E0,-1.651000977E-1,8.135986328E-2,9.631118774E0,9.632877364E0
3.552345616E0,-1.698913574E-1,1.028900146E-1,9.623931885E0,9.625981215E0
3.554664952E0,-1.603240967E-1,1.004943848E-1,9.643081665E0,9.644937892E0
3.557014806E0,-1.579284668E-1,7.896423340E-2,9.640686035E0,9.642302836E0
3.559334142E0,-1.411743164E-1,9.092712402E-2,9.592819214E0,9.594288843E0
3.561664311E0,-1.603240967E-1,8.135986328E-2,9.607177734E0,9.608859832E0
3.563983647E0,-1.507415771E-1,1.004943848E-1,9.640686035E0,9.642388157E0
3.566333501E0,-1.483612061E-1,1.028900146E-1,9.621536255E0,9.623230087E0
3.568652837E0,-1.483612061E-1,9.809875488E-2,9.602401733E0,9.604048806E0
3.571002690E0,-1.507415771E-1,9.571838379E-2,9.619140625E0,9.620797856E0
3.573322026E0,-1.603240967E-1,1.004943848E-1,9.633499146E0,9.635357218E0
3.575671880E0,-1.722869873E-1,9.571838379E-2,9.640686035E0,9.642700454E0
3.577991216E0,-1.603240967E-1,8.853149414E-2,9.614364624E0,9.616108816E0
3.580341069E0,-1.579284668E-1,9.092712402E-2,9.602401733E0,9.604130788E0
3.582660405E0,-1.603240967E-1,9.571838379E-2,9.619140625E0,9.620952769E0
3.585010259E0,-1.603240967E-1,7.656860352E-2,9.611968994E0,9.613610899E0
3.587329594E0,-1.579284668E-1,7.896423340E-2,9.626327515E0,9.627946727E0
3.589679448E0,-1.674957275E-1,1.052856445E-1,9.633499146E0,9.635530378E0
3.591998784E0,-1.507415771E-1,1.220397949E-1,9.635894775E0,9.637846484E0
3.594348637E0,-1.507415771E-1,1.220397949E-1,9.635894775E0,9.637846484E0
3.596667973E0,-1.435699463E-1,1.076812744E-1,9.650253296E0,9.651921895E0
3.599017827E0,-1.387786865E-1,1.004943848E-1,9.645462036E0,9.646983805E0
3.601367680E0,-1.507415771E-1,1.220397949E-1,9.647857666E0,9.649806955E0
3.603687016E0,-1.555328369E-1,1.028900146E-1,9.671783447E0,9.673581130E0
3.606036870E0,-1.459655762E-1,1.100769043E-1,9.669403076E0,9.671131202E0
3.608356206E0,-1.483612061E-1,9.809875488E-2,9.678970337E0,9.680604382E0
3.610706059E0,-1.483612061E-1,1.220397949E-1,9.688537598E0,9.690441968E0
3.613025395E0,-1.363983154E-1,9.809875488E-2,9.678970337E0,9.680428433E0
3.615375249E0,-1.411743164E-1,9.571838379E-2,9.671783447E0,9.673287303E0
3.617694585E0,-1.459655762E-1,8.135986328E-2,9.664611816E0,9.666056432E0
3.620044438E0,-1.674957275E-1,6.939697266E-2,9.662216187E0,9.663917032E0
3.622363774E0,-1.818542480E-1,6.221008301E-2,9.659820557E0,9.661732466E0
3.624713628E0,-1.986083984E-1,6.221008301E-2,9.645462036E0,9.647707151E0
3.627124516E0,-1.746826172E-1,6.700134277E-2,9.664611816E0,9.666422542E0
3.629382817E0,-1.770629883E-1,8.135986328E-2,9.664611816E0,9.666576038E0
3.631702153E0,-1.698913574E-1,8.613586426E-2,9.669403076E0,9.671279042E0
3.634052007E0,-1.627044678E-1,8.135986328E-2,9.664611816E0,9.666323693E0
3.636371343E0,-1.818542480E-1,7.417297363E-2,9.662216187E0,9.664212034E0
3.638721196E0,-1.651000977E-1,9.092712402E-2,9.650253296E0,9.652093786E0
3.641040532E0,-1.674957275E-1,9.332275391E-2,9.635894775E0,9.637802243E0
3.643390386E0,-1.555328369E-1,8.375549316E-2,9.662216187E0,9.663830870E0
3.645709721E0,-1.770629883E-1,7.417297363E-2,9.643081665E0,9.644992324E0
3.648059575E0,-1.794586182E-1,5.981445312E-2,9.621536255E0,9.623395610E0
3.650378911E0,-1.722869873E-1,5.981445312E-2,9.611968994E0,9.613699003E0
3.652728764E0,-1.938171387E-1,6.460571289E-2,9.621536255E0,9.623705050E0
3.655048100E0,-1.986083984E-1,5.024719238E-2,9.595214844E0,9.597401626E0
3.657397954E0,-1.986083984E-1,4.785156250E-2,9.571289062E0,9.573469036E0
3.659717290E0,-2.081756592E-1,5.024719238E-2,9.571289062E0,9.573684568E0
3.662067143E0,-1.962127686E-1,4.785156250E-2,9.576080322E0,9.578209831E0
3.664416997E0,-1.938171387E-1,4.785156250E-2,9.559326172E0,9.561410551E0
3.666736333E0,-1.722869873E-1,4.785156250E-2,9.556930542E0,9.558603139E0
3.669086186E0,-1.986083984E-1,5.024719238E-2,9.556930542E0,9.559126082E0
3.671405522E0,-1.938171387E-1,5.024719238E-2,9.554534912E0,9.556632631E0
3.673755376E0,-1.866455078E-1,5.743408203E-2,9.547363281E0,9.549360232E0
3.676074712E0,-1.818542480E-1,6.460571289E-2,9.561721802E0,9.563669206E0
3.678424565E0,-1.746826172E-1,6.221008301E-2,9.597610474E0,9.599401591E0
3.680743901E0,-1.866455078E-1,4.785156250E-2,9.607177734E0,9.609109758E0
3.683093755E0,-1.866455078E-1,5.503845215E-2,9.607177734E0,9.609148235E0
3.685413091E0,-1.818542480E-1,6.460571289E-2,9.621536255E0,9.623471555E0
3.687762944E0,-1.770629883E-1,8.135986328E-2,9.655044556E0,9.657010723E0
3.690082280E0,-1.770629883E-1,7.656860352E-2,9.671783447E0,9.673707102E0
3.692432134E0,-1.674957275E-1,9.092712402E-2,9.667007446E0,9.668885951E0
3.694751469E0,-1.627044678E-1,8.375549316E-2,9.674179077E0,9.675909701E0
3.697101323E0,-1.603240967E-1,1.004943848E-1,9.688537598E0,9.690385117E0
3.699420659E0,-1.411743164E-1,1.052856445E-1,9.655044556E0,9.656650590E0
3.701770512E0,-1.411743164E-1,9.809875488E-2,9.657424927E0,9.658954900E0
3.704089848E0,-1.483612061E-1,1.100769043E-1,9.657424927E0,9.659191694E0
3.706439702E0,-1.483612061E-1,1.004943848E-1,9.659820557E0,9.661482462E0
3.708759038E0,-1.435699463E-1,8.853149414E-2,9.655044556E0,9.656517774E0
3.711108891E0,-1.507415771E-1,9.809875488E-2,9.643081665E0,9.644758700E0
3.713458745E0,-1.627044678E-1,7.417297363E-2,9.669403076E0,9.671056314E0
3.715778081E0,-1.579284668E-1,6.700134277E-2,9.688537598E0,9.690056314E0
3.718127934E0,-1.531372070E-1,6.939697266E-2,9.686141968E0,9.687601001E0
3.720447270E0,-1.722869873E-1,8.375549316E-2,9.686141968E0,9.688036128E0
3.722797124E0,-1.674957275E-1,8.135986328E-2,9.686141968E0,9.687931692E0
3.725116460E0,-1.651000977E-1,8.135986328E-2,9.678970337E0,9.680720234E0
3.727466313E0,-1.483612061E-1,6.939697266E-2,9.676574707E0,9.677960790E0
3.729785649E0,-1.603240967E-1,6.939697266E-2,9.652648926E0,9.654229697E0
3.732135503E0,-1.842498779E-1,7.177734375E-2,9.638290405E0,9.640318560E0
3.734454839E0,-1.842498779E-1,6.460571289E-2,9.631118774E0,9.633097672E0
3.736804692E0,-1.842498779E-1,5.981445312E-2,9.635894775E0,9.637841766E0
3.739124028E0,-1.938171387E-1,5.024719238E-2,9.633499146E0,9.635579674E0
3.741473882E0,-2.129669189E-1,5.024719238E-2,9.607177734E0,9.609669282E0
3.743793218E0,-2.057800293E-1,5.024719238E-2,9.607177734E0,9.609512694E0
3.746173589E0,-1.986083984E-1,5.024719238E-2,9.611968994E0,9.614151966E0
3.748492925E0,-2.081756592E-1,5.024719238E-2,9.602401733E0,9.604789479E0
3.750842778E0,-2.057800293E-1,4.785156250E-2,9.595214844E0,9.597540471E0
3.753192632E0,-2.081756592E-1,4.785156250E-2,9.588043213E0,9.590422281E0
3.755511968E0,-2.201385498E-1,4.785156250E-2,9.590438843E0,9.593084381E0
3.757861821E0,-2.105712891E-1,4.785156250E-2,9.568893433E0,9.571329665E0
3.760181157E0,-2.033843994E-1,5.024719238E-2,9.556930542E0,9.559226505E0
3.762531011E0,-2.010040283E-1,4.785156250E-2,9.537796021E0,9.540033822E0
3.764850346E0,-1.938171387E-1,5.743408203E-2,9.559326172E0,9.561463309E0
3.767200200E0,-1.938171387E-1,5.264282227E-2,9.571289062E0,9.573395984E0
3.769519536E0,-1.818542480E-1,5.024719238E-2,9.568893433E0,9.570753224E0
3.771869389E0,-1.770629883E-1,5.024719238E-2,9.571289062E0,9.573058571E0
3.774188725E0,-1.770629883E-1,4.785156250E-2,9.628723145E0,9.630469899E0
3.776538579E0,-1.794586182E-1,7.417297363E-2,9.635894775E0,9.637851169E0
3.778857915E0,-1.794586182E-1,5.981445312E-2,9.604797363E0,9.606659958E0
3.781207768E0,-1.914215088E-1,6.939697266E-2,9.626327515E0,9.628480646E0
3.783527104E0,-1.842498779E-1,6.221008301E-2,9.638290405E0,9.640252074E0
3.785876958E0,-1.914215088E-1,7.656860352E-2,9.609573364E0,9.611784704E0
3.788196294E0,-1.890258789E-1,7.896423340E-2,9.623931885E0,9.626111939E0
3.790546147E0,-1.890258789E-1,7.656860352E-2,9.645462036E0,9.647617915E0
3.792865483E0,-1.770629883E-1,6.460571289E-2,9.645462036E0,9.647303410E0
3.795215337E0,-1.866455078E-1,5.743408203E-2,9.635894775E0,9.637873383E0
3.797534673E0,-1.842498779E-1,5.743408203E-2,9.640686035E0,9.642617587E0
3.799884526E0,-1.770629883E-1,5.264282227E-2,9.650253296E0,9.652021096E0
3.802234380E0,-1.890258789E-1,4.785156250E-2,9.659820557E0,9.661788330E0
3.804553716E0,-1.890258789E-1,5.024719238E-2,9.647857666E0,9.649840056E0
3.806903569E0,-1.842498779E-1,4.785156250E-2,9.650253296E0,9.652130670E0
3.809222905E0,-1.866455078E-1,5.024719238E-2,9.640686035E0,9.642623531E0
3.811572759E0,-1.962127686E-1,4.785156250E-2,9.638290405E0,9.640406172E0
3.813892094E0,-1.986083984E-1,5.743408203E-2,9.633499146E0,9.635717397E0
3.816241948E0,-1.866455078E-1,5.024719238E-2,9.650253296E0,9.652188871E0
3.818561284E0,-1.914215088E-1,4.785156250E-2,9.643081665E0,9.645100101E0
